Ax,Ay,Az,Amag,Ax2,Ay2,Az2,Amag2
-1.86,-9.65,0.03,9.83,-9.66,-0.13,-2.09,9.89
-1.87,-9.63,-0.01,9.81,-9.70,-0.14,-2.10,9.93
-1.91,-9.68,0.07,9.87,-9.66,-0.13,-2.15,9.90
-1.89,-9.71,0.12,9.89,-9.68,-0.12,-2.05,9.90
-1.86,-9.67,0.12,9.85,-9.69,-0.14,-2.10,9.91
-1.92,-9.66,0.06,9.85,-9.64,-0.15,-2.12,9.87
-1.92,-9.60,0.03,9.79,-9.66,-0.13,-2.13,9.89
-1.90,-9.65,0.01,9.83,-9.66,-0.13,-2.10,9.89
-1.88,-9.64,0.00,9.82,-9.66,-0.12,-2.13,9.89
-1.84,-9.63,-0.02,9.81,-9.61,-0.14,-2.13,9.85
-1.82,-9.64,0.02,9.81,-9.64,-0.16,-2.11,9.87
-1.87,-9.65,0.03,9.83,-9.63,-0.14,-2.12,9.86
-1.87,-9.64,0.04,9.82,-9.61,-0.15,-2.15,9.85
-1.86,-9.66,0.04,9.83,-9.62,-0.12,-2.13,9.86
-1.89,-9.65,0.06,9.83,-9.63,-0.11,-2.17,9.87
-1.89,-9.61,0.05,9.80,-9.62,-0.16,-2.15,9.86
-1.87,-9.62,0.07,9.80,-9.65,-0.17,-2.18,9.89
-1.87,-9.65,0.05,9.82,-9.63,-0.15,-2.17,9.87
-1.88,-9.63,0.06,9.81,-9.63,-0.13,-2.14,9.86
-1.88,-9.64,0.01,9.83,-9.63,-0.14,-2.19,9.88
-1.86,-9.62,0.02,9.80,-9.63,-0.14,-2.16,9.87
-1.89,-9.64,0.03,9.82,-9.63,-0.15,-2.16,9.87
-1.90,-9.65,0.04,9.83,-9.64,-0.15,-2.17,9.88
-1.89,-9.68,0.05,9.86,-9.66,-0.13,-2.16,9.90
-1.87,-9.65,0.05,9.83,-9.63,-0.16,-2.19,9.88
-1.88,-9.62,0.08,9.80,-9.59,-0.13,-2.20,9.84
-1.87,-9.67,0.04,9.85,-9.62,-0.12,-2.19,9.87
-1.88,-9.62,0.08,9.80,-9.63,-0.15,-2.17,9.87
-1.88,-9.63,0.09,9.81,-9.62,-0.16,-2.21,9.87
-1.91,-9.62,0.14,9.81,-9.60,-0.18,-2.20,9.85
-1.90,-9.64,0.09,9.83,-9.63,-0.16,-2.17,9.87
-1.88,-9.67,0.12,9.85,-9.61,-0.13,-2.20,9.86
-1.87,-9.60,-0.00,9.78,-9.62,-0.14,-2.15,9.86
-1.87,-9.60,0.09,9.78,-9.63,-0.13,-2.20,9.88
-1.89,-9.63,0.10,9.81,-9.61,-0.13,-2.24,9.86
-1.93,-9.61,0.10,9.81,-9.58,-0.15,-2.19,9.83
-1.91,-9.64,0.10,9.83,-9.62,-0.16,-2.21,9.87
-1.90,-9.62,0.02,9.81,-9.62,-0.11,-2.22,9.87
-1.91,-9.62,0.05,9.81,-9.60,-0.12,-2.21,9.85
-1.97,-9.74,0.25,9.94,-9.62,-0.09,-2.21,9.87
-1.93,-9.55,0.14,9.75,-9.61,-0.12,-2.20,9.86
-1.91,-9.63,0.13,9.82,-9.63,-0.13,-2.17,9.87
-1.93,-9.64,0.16,9.83,-9.60,-0.14,-2.23,9.86
-1.94,-9.64,0.15,9.84,-9.59,-0.14,-2.19,9.84
-1.93,-9.61,0.18,9.80,-9.61,-0.15,-2.22,9.86
-1.88,-9.60,0.07,9.78,-9.59,-0.11,-2.17,9.84
-1.87,-9.64,0.27,9.82,-9.57,-0.13,-2.24,9.83
-1.91,-9.63,0.17,9.81,-9.58,-0.13,-2.27,9.85
-1.96,-9.66,0.26,9.85,-9.60,-0.11,-2.29,9.87
-1.90,-9.57,0.35,9.76,-9.56,-0.15,-2.15,9.80
-1.88,-9.49,0.19,9.68,-9.58,-0.14,-2.31,9.86
-1.90,-9.71,0.09,9.89,-9.66,-0.14,-2.28,9.92
-1.90,-9.67,0.03,9.85,-9.60,-0.15,-2.10,9.83
-1.86,-9.67,0.20,9.85,-9.66,-0.13,-2.30,9.93
-1.91,-9.70,0.29,9.89,-9.52,-0.22,-2.31,9.79
-1.91,-9.59,0.29,9.78,-9.58,-0.16,-2.27,9.84
-1.89,-9.58,0.31,9.77,-9.57,-0.15,-2.20,9.82
-1.82,-9.58,0.13,9.75,-9.61,-0.17,-2.26,9.87
-1.90,-9.65,0.17,9.84,-9.62,-0.15,-2.22,9.87
-1.90,-9.69,0.22,9.88,-9.65,-0.14,-2.28,9.92
-1.93,-9.82,0.46,10.02,-9.64,-0.13,-2.26,9.91
-1.86,-9.67,0.24,9.85,-9.67,-0.12,-2.28,9.93
-1.94,-9.75,0.23,9.94,-9.63,-0.13,-2.25,9.89
-1.93,-9.60,0.06,9.79,-9.61,-0.17,-2.26,9.87
-1.93,-9.55,0.09,9.75,-9.59,-0.14,-2.23,9.84
-1.98,-9.57,0.24,9.77,-9.60,-0.15,-2.22,9.86
-1.94,-9.54,-0.06,9.74,-9.54,-0.10,-2.21,9.79
-1.94,-9.56,0.14,9.76,-9.54,-0.11,-2.22,9.79
-1.94,-9.57,0.27,9.77,-9.57,-0.10,-2.26,9.83
-1.88,-9.55,0.11,9.73,-9.56,-0.10,-2.26,9.83
-1.89,-9.58,0.15,9.77,-9.54,-0.12,-2.27,9.80
-1.91,-9.58,0.20,9.77,-9.55,-0.12,-2.25,9.81
-1.95,-9.59,0.18,9.79,-9.57,-0.09,-2.26,9.83
-1.94,-9.63,0.20,9.83,-9.60,-0.12,-2.26,9.86
-1.87,-9.64,0.22,9.82,-9.62,-0.14,-2.25,9.88
-1.90,-9.63,0.15,9.82,-9.58,-0.11,-2.32,9.86
-2.00,-9.79,0.53,10.01,-9.58,-0.16,-2.33,9.86
-1.90,-9.61,0.12,9.80,-9.66,-0.10,-2.27,9.92
-1.90,-9.67,0.25,9.86,-9.61,-0.14,-2.23,9.86
-1.94,-9.64,0.32,9.84,-9.60,-0.17,-2.27,9.87
-1.89,-9.62,0.31,9.81,-9.57,-0.16,-2.33,9.85
-1.85,-9.57,0.16,9.75,-9.60,-0.18,-2.32,9.88
-1.80,-9.62,0.20,9.79,-9.58,-0.15,-2.26,9.84
-1.82,-9.61,0.19,9.79,-9.56,-0.12,-2.32,9.84
-1.84,-9.61,0.18,9.78,-9.62,-0.15,-2.30,9.89
-1.87,-9.61,0.18,9.79,-9.59,-0.16,-2.29,9.86
-1.89,-9.62,0.18,9.81,-9.57,-0.16,-2.31,9.85
-1.91,-9.64,0.20,9.83,-9.60,-0.16,-2.35,9.89
-1.91,-9.58,0.17,9.77,-9.60,-0.19,-2.36,9.88
-1.93,-9.59,0.14,9.79,-9.54,-0.17,-2.28,9.81
-1.91,-9.58,0.23,9.77,-9.53,-0.15,-2.32,9.81
-1.91,-9.62,0.20,9.81,-9.52,-0.19,-2.36,9.81
-1.91,-9.57,0.21,9.76,-9.51,-0.17,-2.34,9.79
-1.88,-9.55,0.20,9.73,-9.52,-0.15,-2.32,9.80
-1.93,-9.56,0.20,9.76,-9.53,-0.16,-2.36,9.82
-1.90,-9.57,0.17,9.76,-9.57,-0.17,-2.32,9.85
-1.89,-9.61,0.17,9.80,-9.60,-0.17,-2.36,9.89
-1.90,-9.65,0.18,9.84,-9.62,-0.19,-2.34,9.90
-1.91,-9.66,0.18,9.85,-9.61,-0.20,-2.34,9.90
-1.90,-9.69,0.21,9.87,-9.59,-0.19,-2.35,9.88
-1.90,-9.66,0.21,9.85,-9.60,-0.18,-2.36,9.88
-1.88,-9.67,0.23,9.85,-9.60,-0.18,-2.36,9.88
-1.89,-9.68,0.18,9.86,-9.58,-0.19,-2.39,9.87
-1.87,-9.60,0.13,9.78,-9.56,-0.17,-2.38,9.85
-1.87,-9.67,0.28,9.86,-9.58,-0.16,-2.37,9.87
-1.88,-9.58,0.21,9.76,-9.55,-0.17,-2.36,9.84
-1.93,-9.59,0.19,9.78,-9.56,-0.13,-2.34,9.84
-1.94,-9.59,0.18,9.78,-9.57,-0.16,-2.34,9.85
-1.95,-9.59,0.19,9.78,-9.56,-0.16,-2.34,9.85
-1.91,-9.57,0.25,9.76,-9.52,-0.17,-2.34,9.80
-1.93,-9.55,0.25,9.75,-9.52,-0.16,-2.37,9.82
-1.94,-9.52,0.20,9.72,-9.52,-0.14,-2.36,9.81
-1.94,-9.54,0.22,9.74,-9.53,-0.15,-2.35,9.81
-1.95,-9.57,0.21,9.77,-9.56,-0.13,-2.34,9.85
-1.97,-9.57,0.19,9.77,-9.58,-0.11,-2.33,9.86
-1.96,-9.60,0.17,9.80,-9.60,-0.13,-2.31,9.88
-1.93,-9.59,0.18,9.78,-9.58,-0.12,-2.29,9.85
-2.03,-9.64,0.19,9.86,-9.62,-0.11,-2.30,9.89
-2.09,-9.69,0.16,9.91,-9.65,-0.08,-2.32,9.92
-1.99,-9.64,0.26,9.85,-9.58,-0.14,-2.26,9.84
-1.96,-9.57,0.19,9.77,-9.57,-0.15,-2.24,9.83
-1.93,-9.56,0.12,9.75,-9.62,-0.15,-2.31,9.89
-1.90,-9.69,0.12,9.88,-9.60,-0.19,-2.28,9.87
-1.87,-9.67,0.16,9.85,-9.63,-0.22,-2.34,9.91
-1.91,-9.62,0.17,9.81,-9.54,-0.20,-2.34,9.82
-2.01,-9.62,0.31,9.83,-9.52,-0.15,-2.29,9.80
-2.01,-9.56,0.24,9.77,-9.54,-0.08,-2.25,9.80
-1.97,-9.53,0.14,9.73,-9.56,-0.11,-2.24,9.82
-1.95,-9.58,0.12,9.78,-9.55,-0.10,-2.25,9.81
-1.96,-9.63,0.16,9.83,-9.60,-0.11,-2.25,9.86
-1.88,-9.64,0.19,9.82,-9.60,-0.12,-2.27,9.87
-1.83,-9.61,0.20,9.78,-9.63,-0.16,-2.28,9.90
-1.84,-9.64,0.17,9.82,-9.61,-0.15,-2.26,9.87
-1.85,-9.66,0.16,9.84,-9.60,-0.15,-2.24,9.86
-1.87,-9.63,0.18,9.81,-9.58,-0.14,-2.25,9.84
-1.90,-9.65,0.21,9.84,-9.58,-0.16,-2.23,9.84
-1.89,-9.63,0.16,9.81,-9.57,-0.17,-2.24,9.83
-1.87,-9.59,0.04,9.77,-9.61,-0.20,-2.25,9.87
-1.86,-9.61,0.02,9.79,-9.59,-0.21,-2.24,9.85
-1.82,-9.68,0.16,9.85,-9.61,-0.22,-2.27,9.88
-1.83,-9.66,0.22,9.83,-9.60,-0.20,-2.22,9.86
-1.83,-9.66,0.16,9.83,-9.61,-0.20,-2.20,9.86
-1.85,-9.66,0.18,9.84,-9.64,-0.19,-2.29,9.91
-1.87,-9.68,0.13,9.86,-9.63,-0.16,-2.21,9.88
-1.82,-9.65,0.03,9.82,-9.63,-0.14,-2.20,9.88
-1.89,-9.66,0.04,9.84,-9.61,-0.17,-2.29,9.88
-1.93,-9.70,0.14,9.89,-9.60,-0.17,-2.32,9.87
-1.89,-9.65,0.18,9.83,-9.61,-0.16,-2.25,9.87
-1.84,-9.60,0.10,9.78,-9.59,-0.21,-2.19,9.84
-1.88,-9.63,0.12,9.81,-9.58,-0.20,-2.23,9.84
-1.91,-9.64,0.25,9.83,-9.58,-0.19,-2.25,9.84
-1.91,-9.61,0.23,9.80,-9.61,-0.13,-2.27,9.87
-1.96,-9.57,0.11,9.77,-9.62,-0.13,-2.18,9.86
-1.93,-9.63,0.23,9.82,-9.66,-0.15,-2.22,9.91
-1.97,-9.65,0.13,9.85,-9.66,-0.16,-2.16,9.90
-1.96,-9.62,0.14,9.82,-9.66,-0.16,-2.19,9.90
-1.90,-9.63,0.17,9.81,-9.62,-0.18,-2.16,9.86
-1.91,-9.66,0.33,9.85,-9.61,-0.18,-2.20,9.86
-1.89,-9.64,0.24,9.83,-9.60,-0.14,-2.19,9.85
-1.90,-9.61,0.21,9.80,-9.62,-0.16,-2.20,9.87
-1.87,-9.62,0.26,9.81,-9.61,-0.18,-2.13,9.84
-1.86,-9.55,0.07,9.73,-9.59,-0.20,-2.16,9.83
-1.87,-9.63,0.34,9.81,-9.62,-0.19,-2.17,9.86
-1.83,-9.63,0.16,9.80,-9.63,-0.21,-2.13,9.87
-1.85,-9.64,0.13,9.82,-9.61,-0.20,-2.13,9.85
-1.85,-9.62,0.03,9.79,-9.59,-0.20,-2.14,9.83
-1.85,-9.65,0.16,9.83,-9.58,-0.19,-2.17,9.82
-1.82,-9.61,0.17,9.79,-9.61,-0.19,-2.18,9.85
-1.85,-9.68,0.47,9.86,-9.58,-0.22,-2.20,9.83
-1.85,-9.61,0.22,9.79,-9.53,-0.19,-2.18,9.78
-1.90,-9.56,0.05,9.75,-9.50,-0.14,-2.12,9.74
-2.00,-9.59,0.22,9.80,-9.54,-0.14,-2.17,9.79
-1.98,-9.62,0.33,9.83,-9.67,-0.18,-2.22,9.92
-1.95,-9.62,0.10,9.82,-9.74,-0.20,-2.18,9.98
-1.88,-9.64,0.17,9.83,-9.70,-0.19,-2.16,9.94
-1.80,-9.65,-0.01,9.82,-9.67,-0.21,-2.16,9.91
-1.73,-9.69,0.13,9.84,-9.63,-0.18,-2.18,9.88
-1.69,-9.66,-0.01,9.80,-9.64,-0.28,-2.22,9.89
-1.75,-9.73,0.11,9.88,-9.64,-0.30,-2.18,9.89
-1.76,-9.69,-0.05,9.84,-9.67,-0.25,-2.21,9.92
-1.80,-9.72,0.15,9.88,-9.72,-0.28,-2.19,9.97
-1.84,-9.71,0.16,9.88,-9.64,-0.25,-2.24,9.90
-1.85,-9.66,0.12,9.84,-9.60,-0.19,-2.16,9.84
-1.83,-9.61,0.14,9.79,-9.54,-0.13,-2.14,9.78
-1.79,-9.55,0.10,9.72,-9.57,-0.05,-2.15,9.81
-1.82,-9.57,0.07,9.74,-9.64,-0.02,-2.20,9.88
-1.89,-9.61,-0.12,9.80,-9.71,-0.10,-2.32,9.98
-2.05,-9.72,0.29,9.94,-9.68,-0.16,-2.28,9.94
-2.05,-9.58,0.16,9.80,-9.55,-0.20,-2.09,9.78
-1.98,-9.54,0.16,9.75,-9.60,-0.29,-2.27,9.87
-1.95,-9.64,0.08,9.83,-9.50,-0.21,-2.00,9.71
-1.91,-9.56,0.07,9.75,-9.53,-0.05,-2.11,9.76
-1.95,-9.66,0.22,9.86,-9.61,-0.04,-2.28,9.88
-1.96,-9.60,0.19,9.80,-9.61,-0.02,-2.16,9.85
-1.89,-9.56,0.17,9.75,-9.58,-0.01,-2.08,9.80
-1.87,-9.56,0.08,9.74,-9.60,-0.06,-2.03,9.81
-1.88,-9.61,0.19,9.79,-9.61,-0.05,-2.03,9.82
-1.86,-9.59,0.03,9.77,-9.59,0.03,-2.04,9.81
-1.92,-9.62,0.11,9.81,-9.61,-0.03,-2.09,9.83
-1.91,-9.54,0.07,9.73,-9.61,-0.10,-2.12,9.84
-1.95,-9.65,0.21,9.85,-9.59,-0.13,-2.10,9.82
-1.93,-9.65,0.27,9.85,-9.62,-0.17,-2.15,9.86
-1.91,-9.67,0.38,9.86,-9.63,-0.15,-2.08,9.85
-1.85,-9.66,0.20,9.84,-9.68,-0.07,-1.97,9.88
-1.86,-9.71,0.23,9.89,-9.74,0.04,-1.97,9.93
-1.90,-9.72,0.11,9.90,-9.77,0.03,-2.03,9.98
-2.05,-9.65,0.12,9.87,-9.74,-0.06,-2.06,9.96
-2.12,-9.68,0.06,9.91,-9.78,-0.03,-1.95,9.98
-2.17,-9.68,0.06,9.92,-9.85,-0.07,-2.06,10.06
-2.15,-9.74,0.08,9.98,-9.85,-0.07,-2.18,10.08
-2.11,-9.73,0.08,9.96,-9.74,-0.07,-2.17,9.98
-1.97,-9.66,0.11,9.86,-9.53,-0.02,-2.26,9.79
-1.86,-9.58,0.07,9.76,-9.38,-0.00,-2.27,9.65
-1.68,-9.52,-0.03,9.67,-9.35,-0.00,-2.28,9.63
-1.54,-9.53,-0.01,9.65,-9.37,-0.02,-2.21,9.63
-1.55,-9.58,0.00,9.70,-9.48,-0.05,-2.27,9.75
-1.59,-9.70,0.11,9.83,-9.66,-0.17,-2.16,9.90
-1.66,-9.74,0.21,9.88,-9.74,-0.20,-2.14,9.98
-1.69,-9.72,0.19,9.87,-9.70,-0.25,-2.13,9.93
-1.79,-9.71,0.11,9.87,-9.75,-0.23,-2.12,9.98
-1.98,-9.73,0.14,9.93,-9.75,-0.11,-2.10,9.98
-2.03,-9.75,0.13,9.96,-9.77,-0.05,-2.11,9.99
-2.06,-9.71,0.13,9.93,-9.75,-0.09,-2.19,9.99
-2.04,-9.68,0.17,9.89,-9.61,-0.14,-2.19,9.86
-2.00,-9.66,0.25,9.87,-9.49,-0.11,-2.12,9.73
-1.88,-9.54,0.15,9.73,-9.49,-0.08,-2.08,9.72
-1.84,-9.52,0.08,9.70,-9.55,-0.06,-2.07,9.78
-1.84,-9.54,0.00,9.72,-9.55,-0.10,-2.08,9.77
-1.88,-9.51,0.01,9.70,-9.52,-0.11,-2.11,9.75
-1.93,-9.58,0.16,9.77,-9.52,-0.14,-2.15,9.77
-1.90,-9.55,0.13,9.74,-9.51,-0.17,-2.19,9.76
-1.87,-9.52,0.18,9.71,-9.46,-0.17,-2.16,9.70
-1.82,-9.50,0.16,9.67,-9.42,-0.17,-2.15,9.66
-1.78,-9.50,0.11,9.67,-9.59,-0.07,-2.17,9.83
-1.89,-9.58,0.04,9.76,-9.64,-0.08,-2.17,9.88
-1.93,-9.71,0.09,9.90,-9.71,-0.13,-2.13,9.94
-1.95,-9.72,0.00,9.91,-9.75,-0.11,-2.11,9.98
-2.01,-9.76,0.03,9.96,-9.76,-0.16,-2.21,10.00
-2.01,-9.76,0.01,9.97,-9.72,-0.16,-2.24,9.97
-1.95,-9.74,0.06,9.93,-9.69,-0.14,-2.20,9.94
-1.93,-9.66,0.04,9.85,-9.69,-0.09,-2.21,9.94
-1.92,-9.64,0.03,9.83,-9.64,-0.06,-2.21,9.89
-1.89,-9.63,0.03,9.82,-9.64,-0.07,-2.16,9.88
-1.87,-9.61,0.03,9.79,-9.64,-0.08,-2.10,9.87
-1.90,-9.61,0.07,9.79,-9.66,-0.09,-2.11,9.88
-1.93,-9.63,0.09,9.82,-9.61,-0.15,-2.11,9.84
-1.93,-9.59,0.15,9.79,-9.61,-0.13,-2.09,9.84
-1.92,-9.61,0.19,9.80,-9.56,-0.17,-2.11,9.79
-1.93,-9.59,0.20,9.78,-9.54,-0.10,-2.10,9.77
-1.89,-9.54,0.21,9.72,-9.53,-0.10,-2.11,9.76
-1.89,-9.52,0.20,9.70,-9.49,-0.06,-2.10,9.72
-1.88,-9.54,0.16,9.73,-9.51,-0.05,-2.10,9.74
-1.90,-9.54,0.14,9.73,-9.60,-0.09,-2.11,9.83
-1.85,-9.61,0.08,9.79,-9.61,-0.08,-2.04,9.82
-1.81,-9.45,0.11,9.62,-9.66,-0.12,-2.03,9.88
-1.96,-9.73,0.14,9.92,-9.73,-0.11,-2.11,9.96
-1.99,-9.78,0.31,9.98,-9.78,-0.14,-2.07,9.99
-1.98,-9.71,0.23,9.92,-9.70,-0.14,-1.98,9.90
-1.86,-9.60,0.01,9.78,-9.71,-0.17,-2.19,9.95
-1.82,-9.79,0.07,9.96,-9.66,-0.15,-1.98,9.86
-1.86,-9.72,0.07,9.89,-9.67,-0.16,-2.01,9.88
-1.85,-9.70,0.10,9.87,-9.67,-0.13,-2.17,9.91
-1.92,-9.68,0.18,9.87,-9.62,-0.12,-2.20,9.87
-1.89,-9.58,0.15,9.76,-9.58,-0.10,-2.12,9.82
-1.95,-9.50,0.08,9.70,-9.58,-0.11,-2.10,9.81
-1.99,-9.52,-0.03,9.72,-9.59,-0.08,-2.19,9.83
-2.02,-9.57,-0.06,9.78,-9.57,-0.05,-2.15,9.81
-2.04,-9.58,-0.01,9.79,-9.58,-0.02,-2.14,9.82
-1.95,-9.65,-0.01,9.84,-9.66,-0.06,-2.18,9.91
-1.93,-9.67,0.02,9.86,-9.67,-0.09,-2.17,9.91
-1.91,-9.67,-0.01,9.86,-9.66,-0.10,-2.16,9.90
-1.89,-9.69,0.02,9.87,-9.66,-0.12,-2.18,9.90
-1.86,-9.60,0.06,9.78,-9.63,-0.10,-2.12,9.86
-1.82,-9.62,0.06,9.79,-9.61,-0.08,-2.20,9.86
-1.84,-9.59,0.03,9.77,-9.61,-0.08,-2.18,9.85
-1.88,-9.62,-0.00,9.80,-9.62,-0.06,-2.14,9.86
-1.87,-9.61,0.01,9.79,-9.60,-0.08,-2.10,9.82
-1.89,-9.61,0.04,9.79,-9.64,-0.04,-2.10,9.87
-1.87,-9.60,0.06,9.78,-9.61,-0.07,-2.08,9.83
-1.92,-9.57,0.05,9.76,-9.64,-0.07,-2.09,9.87
-1.93,-9.63,0.08,9.82,-9.62,-0.10,-2.10,9.85
-1.94,-9.63,0.07,9.83,-9.63,-0.11,-2.08,9.86
-1.97,-9.68,0.12,9.88,-9.66,-0.10,-2.08,9.88
-1.93,-9.63,0.08,9.82,-9.69,-0.09,-2.05,9.91
-1.95,-9.64,0.07,9.83,-9.62,-0.12,-2.02,9.83
-1.97,-9.67,0.13,9.87,-9.68,-0.14,-2.13,9.91
-1.92,-9.68,0.18,9.87,-9.66,-0.12,-2.03,9.87
-1.85,-9.58,0.09,9.76,-9.62,-0.14,-2.08,9.84
-1.90,-9.62,0.05,9.80,-9.61,-0.14,-2.08,9.84
-1.89,-9.62,0.03,9.80,-9.60,-0.09,-2.10,9.83
-1.88,-9.60,0.03,9.79,-9.66,-0.07,-2.15,9.90
-1.92,-9.62,0.01,9.81,-9.62,-0.07,-2.12,9.85
-1.89,-9.61,-0.03,9.79,-9.58,-0.11,-2.11,9.81
-1.90,-9.64,-0.02,9.83,-9.62,-0.09,-2.10,9.85
-1.91,-9.67,-0.01,9.85,-9.63,-0.07,-2.13,9.86
-1.92,-9.66,-0.02,9.85,-9.66,-0.08,-2.12,9.89
-1.91,-9.67,0.01,9.85,-9.68,-0.10,-2.18,9.92
-1.92,-9.66,0.00,9.85,-9.64,-0.08,-2.19,9.89
-1.94,-9.61,0.02,9.81,-9.66,-0.06,-2.16,9.90
-1.91,-9.63,0.04,9.81,-9.65,-0.06,-2.19,9.90
-1.93,-9.60,0.02,9.79,-9.62,-0.08,-2.22,9.87
-1.92,-9.58,0.02,9.77,-9.63,-0.07,-2.18,9.88
-1.91,-9.59,0.00,9.78,-9.59,-0.05,-2.21,9.84
-1.94,-9.58,0.01,9.78,-9.57,-0.06,-2.21,9.82
-1.94,-9.58,0.05,9.78,-9.58,-0.05,-2.15,9.82
-1.93,-9.58,0.03,9.78,-9.58,-0.05,-2.19,9.83
-1.87,-9.55,0.04,9.74,-9.55,-0.08,-2.15,9.79
-1.89,-9.59,0.03,9.78,-9.62,-0.06,-2.22,9.87
-1.90,-9.60,0.07,9.79,-9.60,-0.06,-2.14,9.83
-1.89,-9.66,-0.18,9.85,-9.63,-0.06,-2.16,9.87
-1.94,-9.63,0.03,9.82,-9.63,-0.09,-2.11,9.86
-1.94,-9.63,0.07,9.83,-9.61,-0.07,-2.15,9.85
-1.93,-9.65,-0.00,9.84,-9.66,-0.10,-2.12,9.89
-1.94,-9.66,0.03,9.86,-9.68,-0.10,-2.15,9.92
-1.93,-9.70,0.03,9.89,-9.69,-0.10,-2.17,9.93
-1.90,-9.65,-0.03,9.84,-9.65,-0.07,-2.17,9.89
-1.92,-9.67,-0.04,9.86,-9.67,-0.12,-2.17,9.91
-1.95,-9.66,-0.02,9.85,-9.66,-0.12,-2.17,9.90
-1.95,-9.67,-0.04,9.87,-9.66,-0.10,-2.15,9.90
-1.97,-9.65,-0.01,9.85,-9.68,-0.11,-2.17,9.92
-2.00,-9.68,0.00,9.89,-9.69,-0.09,-2.18,9.93
-1.98,-9.69,0.07,9.89,-9.70,-0.12,-2.17,9.94
-1.99,-9.66,0.04,9.87,-9.68,-0.12,-2.14,9.92
-1.98,-9.66,0.12,9.86,-9.68,-0.11,-2.19,9.92
-1.91,-9.61,0.08,9.80,-9.61,-0.11,-2.18,9.86
-1.92,-9.60,0.11,9.79,-9.59,-0.07,-2.21,9.84
-1.91,-9.58,0.11,9.77,-9.59,-0.08,-2.23,9.84
-1.88,-9.53,0.12,9.72,-9.54,-0.10,-2.22,9.80
-1.86,-9.53,0.05,9.71,-9.55,-0.10,-2.18,9.80
-1.95,-9.63,0.11,9.83,-9.53,-0.07,-2.26,9.79
-1.96,-9.65,0.29,9.85,-9.56,-0.06,-2.24,9.82
-1.94,-9.57,0.23,9.77,-9.55,-0.10,-2.10,9.78
-1.87,-9.49,0.10,9.67,-9.55,-0.09,-2.27,9.81
-1.86,-9.61,0.00,9.79,-9.62,-0.10,-2.11,9.85
-1.86,-9.63,-0.01,9.81,-9.58,-0.11,-2.07,9.80
-1.88,-9.66,0.14,9.84,-9.69,-0.10,-2.31,9.96
-1.97,-9.73,0.27,9.93,-9.61,-0.11,-2.34,9.89
-1.94,-9.64,0.23,9.84,-9.61,-0.11,-2.27,9.88
-1.88,-9.52,-0.16,9.70,-9.58,-0.10,-2.12,9.81
-1.90,-9.56,-0.01,9.75,-9.57,-0.08,-2.25,9.83
-1.96,-9.62,0.03,9.81,-9.58,-0.07,-2.25,9.84
-1.98,-9.67,0.12,9.87,-9.61,-0.06,-2.20,9.86
-1.91,-9.67,0.08,9.86,-9.67,-0.11,-2.24,9.92
-1.87,-9.70,0.09,9.88,-9.65,-0.11,-2.20,9.89
-1.95,-9.69,0.14,9.89,-9.66,-0.08,-2.25,9.91
-1.94,-9.73,0.12,9.93,-9.64,-0.12,-2.21,9.89
-1.96,-9.62,0.12,9.82,-9.64,-0.10,-2.19,9.88
-2.02,-9.73,0.47,9.95,-9.57,-0.10,-2.21,9.83
-1.95,-9.56,0.20,9.76,-9.61,-0.11,-2.20,9.86
-1.96,-9.56,0.20,9.76,-9.58,-0.14,-2.21,9.83
-1.96,-9.60,0.20,9.81,-9.61,-0.13,-2.24,9.87
-1.92,-9.58,0.09,9.77,-9.57,-0.13,-2.26,9.83
-1.93,-9.65,0.21,9.84,-9.58,-0.14,-2.27,9.85
-1.94,-9.58,0.18,9.78,-9.60,-0.12,-2.23,9.86
-1.94,-9.61,0.15,9.81,-9.55,-0.13,-2.25,9.82
-1.93,-9.62,0.15,9.81,-9.60,-0.13,-2.24,9.85
-1.93,-9.57,0.14,9.76,-9.63,-0.13,-2.26,9.89
-1.89,-9.68,0.31,9.86,-9.62,-0.10,-2.21,9.87
-1.92,-9.60,0.11,9.79,-9.57,-0.14,-2.24,9.83
-1.95,-9.62,0.25,9.82,-9.61,-0.11,-2.29,9.88
-1.89,-9.65,0.38,9.84,-9.65,-0.13,-2.27,9.92
-1.89,-9.56,0.20,9.75,-9.57,-0.18,-2.21,9.83
-1.92,-9.59,0.19,9.78,-9.58,-0.15,-2.27,9.85
-1.94,-9.62,0.20,9.82,-9.54,-0.09,-2.27,9.81
-1.94,-9.58,0.19,9.78,-9.60,-0.08,-2.29,9.87
-1.92,-9.59,0.20,9.78,-9.59,-0.12,-2.26,9.85
-1.92,-9.60,0.15,9.80,-9.57,-0.13,-2.23,9.83
-1.94,-9.71,0.40,9.91,-9.63,-0.12,-2.26,9.89
-1.87,-9.64,0.28,9.83,-9.60,-0.14,-2.22,9.85
-1.86,-9.61,0.12,9.79,-9.60,-0.14,-2.23,9.86
-1.91,-9.62,0.31,9.81,-9.60,-0.13,-2.24,9.86
-1.93,-9.62,0.22,9.82,-9.58,-0.13,-2.26,9.84
-1.92,-9.61,0.19,9.80,-9.58,-0.12,-2.25,9.84
-1.91,-9.61,0.18,9.80,-9.60,-0.15,-2.25,9.86
-1.95,-9.60,0.21,9.80,-9.59,-0.15,-2.25,9.85
-1.92,-9.62,0.25,9.81,-9.63,-0.15,-2.26,9.89
-1.92,-9.66,0.25,9.85,-9.61,-0.17,-2.24,9.86
-1.94,-9.71,0.22,9.90,-9.60,-0.14,-2.29,9.87
-1.94,-9.67,0.43,9.87,-9.60,-0.16,-2.29,9.87
-1.92,-9.65,0.31,9.84,-9.62,-0.14,-2.28,9.88
-1.89,-9.58,0.18,9.77,-9.56,-0.15,-2.31,9.83
-1.92,-9.57,0.25,9.77,-9.57,-0.16,-2.30,9.84
-1.90,-9.61,0.20,9.79,-9.56,-0.14,-2.32,9.84
-1.90,-9.59,0.22,9.78,-9.57,-0.14,-2.32,9.85
-1.92,-9.62,0.23,9.82,-9.58,-0.14,-2.33,9.86
-1.91,-9.64,0.24,9.83,-9.57,-0.15,-2.33,9.85
-1.92,-9.59,0.22,9.78,-9.57,-0.18,-2.30,9.85
-1.95,-9.62,0.22,9.81,-9.58,-0.17,-2.30,9.86
-1.96,-9.60,0.26,9.80,-9.59,-0.15,-2.31,9.87
-1.92,-9.60,0.24,9.80,-9.58,-0.13,-2.32,9.86
-1.92,-9.60,0.24,9.80,-9.60,-0.16,-2.32,9.88
-1.96,-9.63,0.22,9.83,-9.61,-0.13,-2.31,9.88
-1.93,-9.63,0.23,9.83,-9.58,-0.14,-2.31,9.86
-1.91,-9.62,0.26,9.81,-9.59,-0.16,-2.30,9.87
-1.94,-9.64,0.25,9.83,-9.58,-0.15,-2.31,9.86
-1.92,-9.62,0.25,9.81,-9.57,-0.14,-2.35,9.86
-1.90,-9.60,0.26,9.79,-9.60,-0.14,-2.31,9.87
-1.93,-9.62,0.25,9.81,-9.58,-0.17,-2.32,9.86
-1.90,-9.60,0.19,9.79,-9.59,-0.17,-2.30,9.86
-1.85,-9.61,0.20,9.79,-9.56,-0.15,-2.33,9.85
-1.93,-9.67,0.25,9.86,-9.57,-0.16,-2.36,9.86
-1.96,-9.64,0.35,9.84,-9.59,-0.16,-2.40,9.88
-1.94,-9.59,0.35,9.79,-9.56,-0.20,-2.24,9.82
-1.92,-9.48,0.38,9.67,-9.56,-0.16,-2.35,9.84
-1.86,-9.55,0.25,9.73,-9.58,-0.14,-2.37,9.86
-1.83,-9.64,0.23,9.82,-9.59,-0.19,-2.21,9.84
-1.86,-9.63,0.39,9.82,-9.61,-0.18,-2.35,9.89
-1.94,-9.63,0.36,9.82,-9.52,-0.20,-2.40,9.82
-1.97,-9.58,0.36,9.79,-9.52,-0.12,-2.33,9.80
-1.96,-9.56,0.28,9.77,-9.56,-0.10,-2.28,9.83
-1.98,-9.59,0.19,9.79,-9.57,-0.10,-2.31,9.85
-1.95,-9.65,0.20,9.85,-9.59,-0.13,-2.30,9.86
-1.94,-9.68,0.25,9.87,-9.62,-0.14,-2.30,9.90
-1.88,-9.64,0.24,9.83,-9.61,-0.17,-2.31,9.89
-1.87,-9.66,0.19,9.84,-9.62,-0.17,-2.32,9.89
-1.89,-9.64,0.25,9.83,-9.59,-0.19,-2.29,9.86
-1.89,-9.63,0.31,9.82,-9.61,-0.17,-2.30,9.89
-1.93,-9.61,0.27,9.81,-9.55,-0.14,-2.29,9.82
-1.97,-9.59,0.24,9.80,-9.54,-0.14,-2.30,9.81
-1.99,-9.61,0.23,9.81,-9.56,-0.12,-2.26,9.82
-1.94,-9.57,0.23,9.77,-9.56,-0.13,-2.26,9.83
-1.93,-9.57,0.18,9.76,-9.56,-0.11,-2.27,9.83
-1.89,-9.58,0.20,9.77,-9.55,-0.13,-2.25,9.81
-1.92,-9.58,0.22,9.77,-9.58,-0.14,-2.30,9.86
-1.94,-9.64,0.22,9.83,-9.56,-0.13,-2.28,9.83
-1.92,-9.64,0.22,9.83,-9.57,-0.11,-2.28,9.84
-1.93,-9.61,0.21,9.81,-9.59,-0.13,-2.30,9.86
-1.91,-9.62,0.19,9.81,-9.60,-0.13,-2.28,9.87
-1.88,-9.64,0.13,9.82,-9.56,-0.15,-2.19,9.81
-1.96,-9.67,0.24,9.87,-9.65,-0.14,-2.44,9.96
-1.93,-9.64,0.26,9.84,-9.59,-0.14,-2.25,9.85
-1.91,-9.60,0.20,9.79,-9.61,-0.15,-2.29,9.88
-1.93,-9.64,0.16,9.83,-9.62,-0.16,-2.27,9.88
-1.95,-9.66,0.26,9.85,-9.59,-0.15,-2.35,9.88
-1.94,-9.59,0.16,9.79,-9.60,-0.15,-2.26,9.87
-1.92,-9.62,0.10,9.81,-9.59,-0.15,-2.28,9.86
-1.91,-9.63,0.11,9.82,-9.58,-0.17,-2.25,9.84
-1.89,-9.62,0.16,9.81,-9.62,-0.15,-2.29,9.89
-1.90,-9.61,0.14,9.80,-9.60,-0.15,-2.28,9.87
-1.89,-9.62,0.16,9.80,-9.56,-0.17,-2.26,9.82
-1.93,-9.61,0.19,9.80,-9.56,-0.14,-2.29,9.83
-1.90,-9.60,0.23,9.79,-9.58,-0.17,-2.29,9.85
-1.93,-9.61,0.20,9.80,-9.59,-0.16,-2.29,9.86
-1.91,-9.61,0.16,9.80,-9.56,-0.17,-2.28,9.83
-1.89,-9.62,0.19,9.80,-9.58,-0.15,-2.29,9.85
-1.90,-9.60,0.15,9.79,-9.60,-0.12,-2.26,9.87
-1.91,-9.59,0.17,9.78,-9.58,-0.12,-2.26,9.84
-1.94,-9.63,0.18,9.82,-9.63,-0.13,-2.23,9.89
-1.96,-9.63,0.16,9.83,-9.60,-0.11,-2.23,9.86
-1.96,-9.63,0.17,9.83,-9.61,-0.13,-2.28,9.88
-1.95,-9.66,0.16,9.86,-9.61,-0.12,-2.26,9.87
-1.93,-9.62,0.12,9.81,-9.59,-0.14,-2.29,9.86
-1.94,-9.63,0.21,9.83,-9.61,-0.15,-2.26,9.87
-1.93,-9.64,0.44,9.84,-9.61,-0.14,-2.28,9.88
-1.89,-9.65,0.22,9.84,-9.64,-0.15,-2.24,9.90
-1.89,-9.62,0.19,9.81,-9.60,-0.16,-2.27,9.86
-1.90,-9.64,0.16,9.82,-9.57,-0.16,-2.24,9.83
-1.92,-9.65,0.16,9.84,-9.61,-0.14,-2.23,9.86
-1.90,-9.62,0.20,9.81,-9.59,-0.15,-2.24,9.85
-1.91,-9.60,0.17,9.79,-9.58,-0.15,-2.25,9.84
-1.88,-9.60,0.05,9.79,-9.60,-0.16,-2.20,9.85
-1.91,-9.60,0.09,9.78,-9.59,-0.13,-2.24,9.85
-1.90,-9.63,0.17,9.81,-9.60,-0.14,-2.22,9.85
-1.88,-9.63,0.18,9.81,-9.61,-0.11,-2.23,9.86
-1.89,-9.61,0.15,9.80,-9.57,-0.15,-2.21,9.83
-1.95,-9.62,0.16,9.82,-9.56,-0.13,-2.21,9.81
-1.94,-9.63,0.24,9.83,-9.57,-0.12,-2.23,9.83
-1.96,-9.67,0.25,9.87,-9.62,-0.11,-2.24,9.87
-1.93,-9.66,0.22,9.85,-9.63,-0.15,-2.23,9.88
-1.91,-9.61,0.16,9.80,-9.60,-0.13,-2.19,9.85
-1.85,-9.66,0.07,9.84,-9.63,-0.13,-2.24,9.88
-1.89,-9.59,-0.00,9.78,-9.63,-0.13,-2.24,9.89
-1.98,-9.70,0.24,9.90,-9.63,-0.12,-2.38,9.92
-1.95,-9.62,0.16,9.82,-9.58,-0.12,-2.17,9.82
-1.86,-9.49,0.05,9.67,-9.61,-0.13,-2.24,9.87
-1.85,-9.64,0.11,9.81,-9.58,-0.15,-2.20,9.83
-1.91,-9.70,0.07,9.89,-9.60,-0.15,-2.11,9.83
-1.94,-9.67,0.18,9.86,-9.65,-0.13,-2.29,9.92
-1.99,-9.66,0.26,9.86,-9.57,-0.12,-2.30,9.84
-1.94,-9.61,0.22,9.80,-9.58,-0.13,-2.22,9.83
-1.91,-9.53,0.12,9.72,-9.56,-0.13,-2.16,9.81
-1.92,-9.57,0.05,9.76,-9.57,-0.09,-2.18,9.82
-1.97,-9.62,0.07,9.82,-9.60,-0.06,-2.30,9.87
-1.96,-9.64,0.15,9.84,-9.61,-0.08,-2.19,9.86
-1.92,-9.66,0.08,9.85,-9.66,-0.13,-2.25,9.92
-1.86,-9.70,-0.02,9.87,-9.64,-0.15,-2.15,9.87
-1.91,-9.71,0.15,9.89,-9.66,-0.16,-2.26,9.93
-1.89,-9.64,0.11,9.83,-9.61,-0.14,-2.13,9.84
-1.94,-9.61,0.13,9.81,-9.61,-0.11,-2.20,9.86
-1.94,-9.66,0.17,9.85,-9.61,-0.13,-2.16,9.86
-1.96,-9.63,0.14,9.82,-9.60,-0.12,-2.18,9.85
-1.92,-9.62,0.12,9.81,-9.58,-0.15,-2.15,9.82
-1.92,-9.63,0.14,9.82,-9.62,-0.13,-2.16,9.86
-1.85,-9.44,0.10,9.62,-9.60,-0.14,-2.19,9.85
-1.87,-9.59,0.08,9.77,-9.60,-0.15,-2.15,9.84
-1.89,-9.58,0.07,9.77,-9.58,-0.14,-2.22,9.84
-1.90,-9.58,0.08,9.77,-9.59,-0.12,-2.19,9.83
-1.90,-9.61,0.06,9.80,-9.59,-0.10,-2.16,9.83
-1.94,-9.63,0.12,9.83,-9.60,-0.11,-2.17,9.85
-1.84,-9.65,0.10,9.82,-9.64,-0.13,-2.13,9.87
-1.93,-9.63,0.04,9.82,-9.63,-0.10,-2.17,9.87
-1.93,-9.80,0.28,9.99,-9.65,-0.11,-2.28,9.92
-1.89,-9.63,0.25,9.82,-9.66,-0.11,-2.13,9.90
-1.90,-9.65,0.22,9.84,-9.66,-0.11,-2.16,9.90
-1.92,-9.60,0.07,9.79,-9.63,-0.13,-2.21,9.88
-1.91,-9.56,0.05,9.75,-9.55,-0.11,-2.16,9.79
-1.97,-9.60,0.04,9.80,-9.59,-0.08,-2.19,9.84
-1.96,-9.64,0.10,9.84,-9.61,-0.07,-2.16,9.85
-1.93,-9.66,0.05,9.85,-9.63,-0.11,-2.18,9.88
-1.90,-9.68,0.01,9.87,-9.62,-0.11,-2.13,9.85
-1.89,-9.60,-0.01,9.79,-9.64,-0.09,-2.16,9.88
-1.87,-9.66,-0.11,9.84,-9.60,-0.14,-2.16,9.84
-1.91,-9.61,0.01,9.80,-9.56,-0.12,-2.16,9.81
-1.91,-9.65,0.07,9.84,-9.62,-0.11,-2.23,9.87
-1.93,-9.61,0.12,9.81,-9.62,-0.13,-2.20,9.87
-1.90,-9.63,0.11,9.82,-9.61,-0.12,-2.20,9.86
-1.91,-9.62,0.10,9.81,-9.60,-0.14,-2.19,9.85
-1.92,-9.62,0.06,9.81,-9.63,-0.12,-2.18,9.88
-1.91,-9.62,0.03,9.81,-9.61,-0.13,-2.18,9.85
-1.89,-9.69,0.07,9.87,-9.62,-0.12,-2.17,9.86
-1.92,-9.60,-0.00,9.79,-9.62,-0.14,-2.16,9.86
-1.91,-9.62,0.07,9.81,-9.59,-0.12,-2.19,9.84
-1.93,-9.63,0.09,9.82,-9.63,-0.12,-2.18,9.87
-1.92,-9.66,0.08,9.85,-9.65,-0.14,-2.18,9.89
-1.92,-9.65,0.10,9.84,-9.66,-0.13,-2.17,9.90
-1.91,-9.65,0.08,9.83,-9.62,-0.13,-2.15,9.86
-1.91,-9.62,0.08,9.80,-9.63,-0.08,-2.14,9.87
-1.93,-9.60,0.05,9.80,-9.63,-0.12,-2.16,9.87
-1.91,-9.62,0.05,9.80,-9.60,-0.08,-2.15,9.84
-1.92,-9.61,0.10,9.80,-9.58,-0.11,-2.18,9.83
-1.92,-9.64,0.10,9.83,-9.62,-0.12,-2.15,9.85
-1.91,-9.61,0.09,9.80,-9.62,-0.12,-2.16,9.86
-1.90,-9.65,0.10,9.83,-9.60,-0.11,-2.16,9.84
-1.90,-9.65,0.03,9.84,-9.61,-0.12,-2.16,9.85
-1.88,-9.60,0.06,9.79,-9.64,-0.14,-2.17,9.88
-1.89,-9.61,0.07,9.79,-9.60,-0.13,-2.16,9.84
-1.88,-9.61,0.09,9.79,-9.61,-0.13,-2.18,9.86
-1.90,-9.62,0.09,9.81,-9.61,-0.12,-2.16,9.85
-1.90,-9.64,0.12,9.83,-9.60,-0.15,-2.15,9.84
-1.90,-9.65,0.08,9.83,-9.60,-0.13,-2.16,9.84
-1.90,-9.66,0.08,9.84,-9.64,-0.11,-2.16,9.88
-1.93,-9.63,0.08,9.82,-9.63,-0.15,-2.15,9.86
-1.89,-9.50,-0.07,9.69,-9.60,-0.11,-2.18,9.84
-1.84,-9.58,-0.05,9.76,-9.66,-0.11,-2.14,9.89
-1.93,-9.70,0.04,9.89,-9.65,-0.12,-2.18,9.89
-1.99,-9.71,0.22,9.91,-9.63,-0.09,-2.27,9.89
-1.94,-9.64,0.19,9.84,-9.59,-0.14,-2.08,9.81
-1.88,-9.51,-0.00,9.70,-9.60,-0.13,-2.18,9.84
-1.85,-9.67,-0.01,9.84,-9.59,-0.20,-2.08,9.82
-1.84,-9.68,-0.03,9.85,-9.60,-0.14,-2.05,9.82
-1.89,-9.62,0.01,9.81,-9.64,-0.13,-2.21,9.89
-1.94,-9.67,0.21,9.86,-9.62,-0.11,-2.30,9.89
-1.92,-9.57,0.37,9.77,-9.62,-0.12,-2.12,9.85
-1.88,-9.60,0.04,9.78,-9.61,-0.15,-2.11,9.84
-1.92,-9.59,-0.02,9.78,-9.59,-0.12,-2.17,9.84
-1.94,-9.60,-0.05,9.80,-9.61,-0.11,-2.21,9.86
-1.94,-9.63,-0.02,9.82,-9.66,-0.12,-2.17,9.90
-1.90,-9.66,-0.04,9.84,-9.67,-0.11,-2.15,9.90
-1.87,-9.69,0.01,9.87,-9.68,-0.13,-2.17,9.92
-1.87,-9.71,0.03,9.89,-9.66,-0.16,-2.13,9.89
-1.90,-9.66,0.07,9.84,-9.65,-0.16,-2.13,9.89
-1.89,-9.68,0.08,9.87,-9.61,-0.12,-2.13,9.84
-1.93,-9.62,0.08,9.81,-9.59,-0.09,-2.11,9.82
-1.93,-9.60,0.05,9.79,-9.59,-0.12,-2.11,9.82
-1.92,-9.60,0.06,9.79,-9.57,-0.10,-2.11,9.80
-1.91,-9.58,0.05,9.77,-9.60,-0.13,-2.14,9.83
-1.90,-9.59,0.06,9.78,-9.60,-0.13,-2.16,9.84
-1.89,-9.59,0.09,9.78,-9.59,-0.15,-2.14,9.83
-1.88,-9.61,0.08,9.79,-9.60,-0.14,-2.11,9.83
-1.92,-9.61,0.08,9.80,-9.60,-0.11,-2.15,9.84
-1.90,-9.63,0.06,9.82,-9.60,-0.09,-2.12,9.83
-1.92,-9.62,0.03,9.81,-9.61,-0.11,-2.13,9.85
-1.88,-9.63,0.05,9.81,-9.63,-0.10,-2.12,9.86
-1.87,-9.63,0.05,9.81,-9.61,-0.10,-2.11,9.84
-1.92,-9.61,0.06,9.80,-9.64,-0.08,-2.19,9.89
-1.90,-9.68,0.14,9.87,-9.66,-0.13,-2.15,9.89
-1.92,-9.63,0.11,9.82,-9.67,-0.10,-2.09,9.90
-1.91,-9.62,0.06,9.81,-9.61,-0.12,-2.10,9.84
-1.89,-9.61,0.04,9.80,-9.62,-0.11,-2.16,9.86
-1.93,-9.63,0.08,9.83,-9.60,-0.08,-2.14,9.84
-1.92,-9.64,0.06,9.83,-9.62,-0.05,-2.15,9.85
-1.85,-9.61,0.04,9.79,-9.61,-0.10,-2.10,9.84
-1.88,-9.60,0.03,9.78,-9.61,-0.11,-2.11,9.84
-1.85,-9.66,0.06,9.83,-9.64,-0.10,-2.12,9.87
-1.90,-9.65,0.06,9.84,-9.63,-0.11,-2.13,9.86
-1.88,-9.67,0.06,9.85,-9.63,-0.09,-2.12,9.86
-1.91,-9.64,0.05,9.83,-9.60,-0.11,-2.15,9.84
-1.89,-9.61,0.03,9.79,-9.61,-0.10,-2.16,9.85
-1.92,-9.63,0.03,9.82,-9.59,-0.11,-2.17,9.83
-1.92,-9.61,0.05,9.80,-9.60,-0.09,-2.15,9.84
-1.93,-9.60,0.03,9.79,-9.64,-0.10,-2.15,9.88
-1.90,-9.63,0.03,9.82,-9.64,-0.13,-2.13,9.87
-1.91,-9.62,0.03,9.81,-9.63,-0.11,-2.14,9.86
-1.89,-9.61,0.04,9.80,-9.63,-0.12,-2.15,9.86
-1.90,-9.63,0.06,9.81,-9.64,-0.14,-2.16,9.88
-1.89,-9.67,0.05,9.85,-9.64,-0.13,-2.15,9.88
-1.89,-9.65,0.07,9.83,-9.63,-0.11,-2.17,9.87
-1.88,-9.65,0.06,9.83,-9.63,-0.09,-2.14,9.87
-1.88,-9.62,0.03,9.80,-9.62,-0.10,-2.17,9.86
-1.90,-9.64,0.05,9.83,-9.65,-0.10,-2.15,9.89
-1.92,-9.60,0.03,9.79,-9.57,-0.12,-2.14,9.81
-1.90,-9.62,0.03,9.80,-9.63,-0.08,-2.14,9.87
-1.91,-9.61,0.04,9.80,-9.60,-0.10,-2.15,9.84
-1.92,-9.64,0.04,9.83,-9.62,-0.12,-2.17,9.86
-1.92,-9.61,0.05,9.80,-9.61,-0.12,-2.13,9.84
-1.89,-9.63,0.05,9.81,-9.61,-0.09,-2.15,9.84
-1.92,-9.62,0.06,9.81,-9.63,-0.10,-2.14,9.87
-1.90,-9.63,0.04,9.81,-9.60,-0.09,-2.15,9.84
-1.93,-9.62,0.01,9.81,-9.63,-0.11,-2.15,9.86
-1.93,-9.63,0.02,9.82,-9.62,-0.09,-2.18,9.87
-1.91,-9.63,0.02,9.82,-9.66,-0.09,-2.17,9.90
-1.92,-9.63,0.06,9.82,-9.62,-0.08,-2.17,9.86
-1.92,-9.63,0.05,9.82,-9.62,-0.10,-2.14,9.85
-1.90,-9.63,0.03,9.82,-9.65,-0.09,-2.16,9.89
-1.92,-9.63,0.02,9.82,-9.64,-0.06,-2.15,9.88
-1.92,-9.63,0.02,9.82,-9.62,-0.11,-2.14,9.85
-1.90,-9.62,0.02,9.81,-9.63,-0.09,-2.16,9.87
-1.88,-9.65,0.01,9.83,-9.61,-0.10,-2.14,9.85
-1.86,-9.62,-0.01,9.79,-9.64,-0.08,-2.14,9.88
-1.93,-9.71,0.02,9.90,-9.65,-0.10,-2.18,9.89
-1.94,-9.71,0.18,9.90,-9.67,-0.09,-2.21,9.92
-1.92,-9.65,0.13,9.84,-9.62,-0.12,-2.08,9.84
-1.87,-9.51,0.01,9.69,-9.66,-0.12,-2.28,9.93
-1.81,-9.65,-0.04,9.82,-9.63,-0.13,-2.12,9.86
-1.82,-9.66,-0.04,9.83,-9.60,-0.11,-2.05,9.81
-1.90,-9.64,0.09,9.83,-9.66,-0.10,-2.25,9.92
-1.99,-9.69,0.19,9.90,-9.60,-0.08,-2.23,9.85
-1.95,-9.61,0.18,9.81,-9.60,-0.08,-2.13,9.84
-1.91,-9.55,0.08,9.74,-9.60,-0.09,-2.11,9.83
-1.92,-9.57,-0.02,9.76,-9.59,-0.10,-2.17,9.84
-1.98,-9.62,0.02,9.82,-9.57,-0.08,-2.15,9.81
-1.96,-9.63,0.02,9.83,-9.67,-0.09,-2.16,9.91
-1.91,-9.66,0.06,9.85,-9.68,-0.11,-2.15,9.92
-1.85,-9.69,0.06,9.86,-9.70,-0.12,-2.16,9.94
-1.88,-9.70,0.09,9.88,-9.70,-0.12,-2.18,9.94
-1.91,-9.68,0.10,9.87,-9.65,-0.12,-2.14,9.88
-1.90,-9.63,0.12,9.82,-9.63,-0.13,-2.18,9.88
-1.91,-9.65,0.10,9.84,-9.63,-0.10,-2.16,9.87
-1.89,-9.61,0.12,9.79,-9.60,-0.13,-2.15,9.84
-1.90,-9.59,0.08,9.78,-9.57,-0.12,-2.18,9.81
-1.88,-9.56,-0.00,9.74,-9.60,-0.12,-2.18,9.84
-1.85,-9.58,0.09,9.76,-9.57,-0.14,-2.16,9.81
-1.87,-9.58,0.14,9.76,-9.59,-0.14,-2.20,9.84
-1.89,-9.60,0.09,9.79,-9.58,-0.10,-2.20,9.83
-1.90,-9.60,0.10,9.79,-9.58,-0.13,-2.15,9.82
-1.90,-9.63,0.08,9.82,-9.59,-0.12,-2.15,9.83
-1.92,-9.63,0.10,9.82,-9.60,-0.10,-2.16,9.84
-1.86,-9.64,0.11,9.82,-9.63,-0.09,-2.20,9.88
-1.91,-9.58,0.03,9.77,-9.64,-0.10,-2.19,9.89
-1.96,-9.67,0.19,9.87,-9.62,-0.13,-2.33,9.90
-1.94,-9.69,0.25,9.89,-9.64,-0.14,-2.21,9.89
-1.85,-9.74,0.18,9.91,-9.64,-0.15,-2.23,9.89
-1.87,-9.62,0.12,9.80,-9.61,-0.12,-2.27,9.88
-1.93,-9.59,0.14,9.78,-9.57,-0.10,-2.24,9.83
-1.91,-9.63,0.17,9.82,-9.61,-0.09,-2.30,9.88
-1.90,-9.61,0.16,9.79,-9.62,-0.11,-2.22,9.87
-1.90,-9.61,0.06,9.80,-9.58,-0.13,-2.24,9.84
-1.90,-9.66,0.18,9.85,-9.61,-0.11,-2.22,9.86
-1.91,-9.68,0.29,9.87,-9.64,-0.14,-2.23,9.89
-1.89,-9.60,0.16,9.79,-9.61,-0.13,-2.25,9.87
-1.88,-9.62,0.17,9.80,-9.58,-0.13,-2.25,9.84
-1.92,-9.68,0.32,9.87,-9.58,-0.14,-2.24,9.84
-1.90,-9.72,0.45,9.91,-9.60,-0.14,-2.28,9.87
-1.85,-9.57,0.04,9.75,-9.60,-0.14,-2.30,9.87
-1.87,-9.62,0.19,9.80,-9.54,-0.12,-2.27,9.81
-1.88,-9.63,0.17,9.81,-9.56,-0.12,-2.27,9.83
-1.89,-9.58,0.11,9.76,-9.58,-0.11,-2.26,9.84
-1.87,-9.64,0.22,9.82,-9.61,-0.14,-2.26,9.88
-1.88,-9.61,0.19,9.79,-9.58,-0.13,-2.21,9.84
-1.93,-9.74,0.31,9.93,-9.59,-0.14,-2.27,9.86
-1.89,-9.64,0.21,9.82,-9.59,-0.12,-2.24,9.84
-1.89,-9.64,0.26,9.82,-9.60,-0.13,-2.25,9.86
-1.96,-9.70,0.56,9.91,-9.65,-0.12,-2.26,9.91
-1.91,-9.63,0.37,9.83,-9.61,-0.14,-2.26,9.87
-1.93,-9.60,0.27,9.80,-9.61,-0.17,-2.29,9.88
-1.91,-9.72,0.27,9.91,-9.58,-0.15,-2.28,9.85
-1.93,-9.60,0.22,9.80,-9.60,-0.15,-2.28,9.87
-1.94,-9.64,0.28,9.83,-9.60,-0.15,-2.27,9.87
-1.90,-9.61,0.36,9.80,-9.62,-0.17,-2.28,9.89
-1.91,-9.63,0.34,9.82,-9.60,-0.17,-2.28,9.86
-1.89,-9.58,0.12,9.77,-9.59,-0.16,-2.30,9.86
-1.87,-9.62,0.35,9.80,-9.59,-0.17,-2.29,9.86
-1.88,-9.63,0.35,9.81,-9.62,-0.18,-2.26,9.88
-1.88,-9.60,0.31,9.79,-9.57,-0.22,-2.28,9.84
-1.91,-9.69,0.43,9.88,-9.61,-0.19,-2.30,9.88
-1.90,-9.64,0.28,9.83,-9.60,-0.20,-2.28,9.87
-1.90,-9.62,0.39,9.81,-9.59,-0.17,-2.30,9.86
-1.90,-9.63,0.37,9.83,-9.57,-0.20,-2.26,9.83
-1.87,-9.60,0.29,9.79,-9.59,-0.17,-2.26,9.86
-1.87,-9.67,0.36,9.85,-9.56,-0.17,-2.31,9.84
-1.87,-9.63,0.24,9.81,-9.60,-0.17,-2.28,9.87
-1.88,-9.60,0.23,9.79,-9.59,-0.17,-2.28,9.85
-1.87,-9.63,0.23,9.82,-9.60,-0.18,-2.30,9.87
-1.86,-9.65,0.20,9.83,-9.61,-0.17,-2.33,9.89
-1.97,-9.66,0.40,9.87,-9.62,-0.17,-2.38,9.91
-1.90,-9.64,0.50,9.84,-9.55,-0.18,-2.23,9.81
-1.87,-9.53,0.25,9.71,-9.58,-0.17,-2.35,9.87
-1.81,-9.58,0.17,9.76,-9.59,-0.16,-2.35,9.87
-1.81,-9.64,0.18,9.81,-9.57,-0.20,-2.24,9.83
-1.77,-9.61,0.28,9.78,-9.63,-0.21,-2.34,9.92
-1.91,-9.63,0.32,9.83,-9.52,-0.23,-2.38,9.82
-1.96,-9.63,0.42,9.84,-9.54,-0.15,-2.35,9.82
-1.93,-9.55,0.36,9.75,-9.54,-0.12,-2.29,9.81
-1.90,-9.55,0.29,9.75,-9.57,-0.13,-2.31,9.84
-1.93,-9.65,0.23,9.84,-9.59,-0.15,-2.30,9.87
-1.90,-9.67,0.26,9.86,-9.65,-0.17,-2.32,9.92
-1.85,-9.66,0.25,9.83,-9.63,-0.21,-2.32,9.91
-1.84,-9.68,0.24,9.86,-9.63,-0.20,-2.34,9.91
-1.83,-9.68,0.30,9.86,-9.61,-0.22,-2.29,9.88
-1.88,-9.66,0.34,9.84,-9.59,-0.19,-2.32,9.87
-1.91,-9.61,0.35,9.81,-9.54,-0.17,-2.32,9.82
-1.93,-9.59,0.35,9.78,-9.57,-0.16,-2.30,9.84
-1.93,-9.59,0.31,9.78,-9.54,-0.18,-2.30,9.81
-1.90,-9.57,0.28,9.76,-9.54,-0.15,-2.28,9.81
-1.93,-9.55,0.28,9.75,-9.57,-0.16,-2.28,9.84
-1.87,-9.57,0.28,9.76,-9.55,-0.18,-2.27,9.82
-1.90,-9.60,0.27,9.79,-9.59,-0.16,-2.34,9.88
-1.91,-9.60,0.30,9.80,-9.58,-0.18,-2.27,9.84
-1.91,-9.61,0.26,9.80,-9.58,-0.15,-2.32,9.86
-1.92,-9.63,0.25,9.82,-9.59,-0.14,-2.29,9.86
-1.87,-9.64,0.21,9.82,-9.64,-0.14,-2.30,9.91
-1.84,-9.65,0.21,9.83,-9.58,-0.15,-2.22,9.83
-1.96,-9.66,0.24,9.86,-9.63,-0.16,-2.44,9.94
-1.95,-9.69,0.32,9.89,-9.63,-0.18,-2.27,9.90
-1.89,-9.58,0.27,9.77,-9.64,-0.13,-2.28,9.90
-1.91,-9.61,0.24,9.80,-9.62,-0.20,-2.23,9.88
-1.93,-9.65,0.31,9.85,-9.58,-0.15,-2.33,9.86
-1.94,-9.63,0.32,9.83,-9.57,-0.16,-2.32,9.85
-1.94,-9.59,0.20,9.79,-9.56,-0.15,-2.27,9.83
-1.92,-9.61,0.20,9.80,-9.58,-0.15,-2.25,9.84
-1.87,-9.63,0.23,9.81,-9.58,-0.18,-2.29,9.85
-1.87,-9.62,0.21,9.80,-9.57,-0.16,-2.30,9.85
-1.89,-9.60,0.19,9.79,-9.55,-0.17,-2.36,9.84
-1.89,-9.62,0.22,9.80,-9.55,-0.16,-2.32,9.83
-1.92,-9.62,0.24,9.81,-9.56,-0.15,-2.33,9.84
-1.89,-9.60,0.24,9.79,-9.54,-0.14,-2.30,9.82
-1.90,-9.59,0.23,9.77,-9.57,-0.14,-2.32,9.85
-1.87,-9.61,0.21,9.79,-9.54,-0.13,-2.31,9.82
-1.90,-9.63,0.22,9.82,-9.58,-0.16,-2.33,9.86
-1.91,-9.65,0.20,9.84,-9.61,-0.17,-2.28,9.88
-1.88,-9.64,0.15,9.83,-9.62,-0.17,-2.25,9.88
-1.90,-9.66,0.19,9.85,-9.59,-0.17,-2.30,9.87
-1.90,-9.66,0.18,9.85,-9.62,-0.17,-2.29,9.89
-1.93,-9.63,0.19,9.83,-9.62,-0.15,-2.27,9.88
-1.93,-9.64,0.20,9.83,-9.60,-0.18,-2.28,9.87
-1.92,-9.63,0.19,9.82,-9.56,-0.15,-2.31,9.84
-1.92,-9.65,0.21,9.84,-9.58,-0.15,-2.30,9.85
-1.91,-9.61,0.20,9.80,-9.57,-0.17,-2.27,9.84
-1.86,-9.60,0.18,9.78,-9.59,-0.17,-2.29,9.86
-1.90,-9.61,0.19,9.80,-9.57,-0.16,-2.29,9.85
-1.86,-9.64,0.02,9.82,-9.57,-0.16,-2.28,9.84
-1.92,-9.60,0.14,9.79,-9.56,-0.16,-2.31,9.83
-1.89,-9.61,0.16,9.79,-9.55,-0.15,-2.30,9.82
-1.86,-9.53,-0.05,9.71,-9.55,-0.15,-2.25,9.81
-1.91,-9.66,0.17,9.85,-9.55,-0.15,-2.26,9.82
-1.90,-9.67,0.19,9.86,-9.62,-0.17,-2.23,9.88
-1.92,-9.63,0.20,9.82,-9.63,-0.15,-2.24,9.89
-1.88,-9.65,0.22,9.83,-9.60,-0.13,-2.26,9.87
-1.93,-9.61,0.18,9.80,-9.61,-0.16,-2.29,9.88
-1.89,-9.65,0.19,9.83,-9.61,-0.15,-2.26,9.88
-1.93,-9.71,0.24,9.90,-9.62,-0.14,-2.26,9.89
-1.90,-9.63,0.16,9.82,-9.63,-0.12,-2.26,9.89
-1.89,-9.68,0.13,9.86,-9.62,-0.12,-2.28,9.89
-1.97,-9.68,0.15,9.88,-9.67,-0.17,-2.38,9.96
-1.96,-9.68,0.31,9.88,-9.64,-0.16,-2.23,9.89
-1.90,-9.61,0.15,9.80,-9.58,-0.14,-2.19,9.82
-1.85,-9.54,0.07,9.72,-9.62,-0.17,-2.29,9.89
-1.89,-9.66,0.08,9.85,-9.58,-0.20,-2.16,9.82
-1.86,-9.66,0.09,9.84,-9.63,-0.17,-2.24,9.88
-1.97,-9.69,0.24,9.89,-9.62,-0.17,-2.35,9.91
-1.98,-9.63,0.31,9.84,-9.55,-0.15,-2.27,9.82
-1.93,-9.54,0.22,9.73,-9.56,-0.10,-2.18,9.81
-1.92,-9.53,0.12,9.72,-9.60,-0.09,-2.18,9.84
-1.90,-9.58,0.11,9.76,-9.58,-0.12,-2.25,9.84
-1.91,-9.63,0.14,9.82,-9.61,-0.09,-2.23,9.87
-1.90,-9.65,0.15,9.83,-9.62,-0.12,-2.23,9.88
-1.82,-9.67,0.17,9.84,-9.67,-0.13,-2.20,9.92
-1.83,-9.67,0.16,9.85,-9.64,-0.16,-2.21,9.89
-1.85,-9.59,0.18,9.76,-9.63,-0.14,-2.20,9.88
-1.88,-9.64,0.21,9.82,-9.62,-0.14,-2.17,9.86
-1.93,-9.63,0.18,9.83,-9.62,-0.13,-2.16,9.86
-1.92,-9.61,0.16,9.80,-9.58,-0.13,-2.16,9.82
-1.92,-9.59,0.15,9.78,-9.60,-0.13,-2.18,9.84
-1.87,-9.61,0.13,9.79,-9.62,-0.14,-2.18,9.86
-1.89,-9.61,0.12,9.80,-9.59,-0.14,-2.18,9.83
-1.86,-9.62,0.15,9.80,-9.57,-0.13,-2.20,9.82
-1.86,-9.61,0.14,9.79,-9.58,-0.15,-2.21,9.84
-1.79,-9.50,-0.23,9.67,-9.57,-0.12,-2.20,9.82
-1.95,-9.69,0.25,9.89,-9.57,-0.10,-2.19,9.82
-1.92,-9.60,0.10,9.80,-9.64,-0.10,-2.20,9.89
-1.82,-9.58,-0.20,9.76,-9.60,-0.11,-2.17,9.84
-1.95,-9.66,0.23,9.86,-9.57,-0.13,-2.17,9.82
-1.93,-9.66,0.14,9.85,-9.69,-0.11,-2.35,9.97
-1.93,-9.69,0.16,9.88,-9.64,-0.13,-2.15,9.88
-1.87,-9.64,0.02,9.82,-9.68,-0.12,-2.20,9.92
-1.89,-9.67,0.16,9.86,-9.62,-0.16,-2.22,9.87
-1.89,-9.63,0.14,9.81,-9.61,-0.17,-2.19,9.86
-1.88,-9.57,-0.17,9.76,-9.63,-0.13,-2.19,9.87
-1.93,-9.65,0.02,9.84,-9.66,-0.11,-2.16,9.89
-1.88,-9.63,-0.03,9.81,-9.64,-0.11,-2.18,9.89
-1.86,-9.64,0.04,9.81,-9.62,-0.12,-2.18,9.86
-1.87,-9.63,0.07,9.81,-9.64,-0.11,-2.18,9.88
-1.89,-9.65,-0.02,9.83,-9.65,-0.12,-2.21,9.90
-1.89,-9.62,0.04,9.81,-9.61,-0.11,-2.25,9.87
-1.90,-9.65,0.11,9.83,-9.61,-0.10,-2.20,9.86
-1.90,-9.61,0.11,9.80,-9.59,-0.09,-2.22,9.84
-1.90,-9.62,0.11,9.80,-9.57,-0.10,-2.21,9.82
-1.92,-9.59,0.10,9.78,-9.59,-0.14,-2.18,9.83
-1.89,-9.59,0.10,9.78,-9.57,-0.10,-2.20,9.82
-1.90,-9.64,0.13,9.83,-9.59,-0.13,-2.18,9.84
-1.91,-9.62,0.08,9.81,-9.62,-0.11,-2.18,9.86
-1.91,-9.64,0.09,9.82,-9.64,-0.14,-2.17,9.88
-1.88,-9.66,0.08,9.84,-9.65,-0.13,-2.20,9.90
-1.92,-9.65,0.12,9.84,-9.66,-0.12,-2.16,9.90
-1.88,-9.64,0.12,9.82,-9.64,-0.09,-2.15,9.87
-1.87,-9.62,0.12,9.81,-9.61,-0.12,-2.18,9.86
-1.89,-9.63,0.10,9.81,-9.60,-0.11,-2.17,9.84
-1.86,-9.62,0.09,9.80,-9.58,-0.12,-2.17,9.82
-1.91,-9.63,0.08,9.81,-9.60,-0.10,-2.17,9.84
-1.90,-9.61,0.12,9.80,-9.59,-0.10,-2.19,9.84
-1.90,-9.58,0.12,9.77,-9.58,-0.16,-2.19,9.82
-1.89,-9.59,0.11,9.78,-9.61,-0.12,-2.16,9.85
-1.91,-9.61,0.11,9.80,-9.58,-0.11,-2.17,9.83
-1.86,-9.51,0.03,9.69,-9.60,-0.10,-2.14,9.83
-1.89,-9.62,0.08,9.80,-9.61,-0.12,-2.17,9.85
-1.88,-9.63,0.09,9.81,-9.62,-0.12,-2.14,9.86
-1.90,-9.64,0.14,9.83,-9.61,-0.11,-2.16,9.85
-1.90,-9.65,0.28,9.84,-9.63,-0.12,-2.15,9.87
-1.91,-9.66,0.12,9.84,-9.61,-0.09,-2.17,9.85
-1.93,-9.52,0.17,9.71,-9.60,-0.11,-2.15,9.84
-1.93,-9.64,0.31,9.84,-9.65,-0.10,-2.17,9.89
-1.93,-9.65,0.10,9.85,-9.64,-0.08,-2.16,9.88
-1.93,-9.70,0.19,9.89,-9.63,-0.08,-2.14,9.86
-1.86,-9.63,0.10,9.81,-9.63,-0.09,-2.15,9.86
-1.92,-9.66,0.05,9.85,-9.65,-0.10,-2.17,9.89
-2.01,-9.71,0.10,9.91,-9.65,-0.11,-2.26,9.91
-1.96,-9.67,0.20,9.87,-9.63,-0.10,-2.09,9.85
-1.90,-9.52,0.07,9.71,-9.60,-0.10,-2.19,9.84
-1.83,-9.67,0.01,9.84,-9.66,-0.14,-2.21,9.91
-1.85,-9.69,0.02,9.86,-9.59,-0.14,-2.01,9.80
-1.88,-9.64,0.04,9.82,-9.65,-0.12,-2.24,9.91
-1.95,-9.68,0.13,9.87,-9.61,-0.11,-2.27,9.88
-1.94,-9.63,0.21,9.83,-9.61,-0.10,-2.20,9.86
-1.93,-9.55,0.12,9.74,-9.56,-0.11,-2.14,9.80
-1.91,-9.57,0.07,9.76,-9.53,-0.10,-2.16,9.77
-1.93,-9.60,0.05,9.79,-9.58,-0.07,-2.21,9.84
-1.94,-9.62,0.05,9.82,-9.61,-0.08,-2.18,9.85
-1.92,-9.63,0.06,9.82,-9.66,-0.09,-2.18,9.91
-1.89,-9.85,0.13,10.03,-9.65,-0.12,-2.16,9.89
-1.89,-9.70,0.00,9.88,-9.63,-0.11,-2.12,9.87
-1.89,-9.66,0.09,9.84,-9.67,-0.11,-2.17,9.91
-1.90,-9.68,0.10,9.86,-9.63,-0.10,-2.15,9.86
-1.93,-9.64,0.11,9.83,-9.61,-0.09,-2.13,9.84
-1.94,-9.61,0.09,9.80,-9.62,-0.08,-2.14,9.85
-1.92,-9.62,0.07,9.81,-9.59,-0.12,-2.12,9.83
-1.88,-9.60,0.05,9.79,-9.61,-0.09,-2.10,9.84
-1.88,-9.60,0.05,9.78,-9.62,-0.11,-2.13,9.85
-1.87,-9.61,0.07,9.79,-9.60,-0.11,-2.15,9.84
-1.86,-9.60,0.08,9.78,-9.60,-0.11,-2.16,9.84
-1.84,-9.61,0.06,9.79,-9.62,-0.13,-2.15,9.86
-1.90,-9.66,0.05,9.84,-9.61,-0.09,-2.17,9.85
-1.92,-9.57,0.03,9.76,-9.61,-0.12,-2.15,9.84
-1.92,-9.64,0.04,9.83,-9.63,-0.09,-2.18,9.87
-1.87,-9.66,0.06,9.84,-9.61,-0.10,-2.13,9.84
-1.91,-9.64,-0.00,9.83,-9.69,-0.12,-2.18,9.93
-1.93,-9.68,0.10,9.87,-9.66,-0.11,-2.24,9.92
-1.89,-9.62,0.08,9.80,-9.65,-0.09,-2.13,9.88
-1.89,-9.60,0.05,9.79,-9.60,-0.14,-2.16,9.84
-1.91,-9.62,0.01,9.81,-9.60,-0.13,-2.18,9.84
-1.95,-9.61,0.07,9.81,-9.60,-0.09,-2.19,9.85
-1.93,-9.60,0.04,9.80,-9.60,-0.07,-2.19,9.84
-1.89,-9.59,0.06,9.77,-9.58,-0.09,-2.15,9.82
-1.85,-9.58,0.02,9.75,-9.60,-0.11,-2.13,9.84
-1.87,-9.60,-0.06,9.78,-9.62,-0.12,-2.15,9.86
-1.81,-9.50,-0.28,9.67,-9.60,-0.12,-2.13,9.83
-1.91,-9.72,0.25,9.90,-9.62,-0.13,-2.14,9.86
-1.90,-9.66,0.02,9.84,-9.61,-0.11,-2.18,9.86
-1.90,-9.64,0.01,9.82,-9.66,-0.12,-2.19,9.90
-1.89,-9.66,0.05,9.84,-9.64,-0.13,-2.15,9.88
-1.89,-9.63,0.01,9.82,-9.61,-0.10,-2.14,9.85
-1.87,-9.68,0.03,9.86,-9.62,-0.13,-2.18,9.86
-1.88,-9.64,0.08,9.82,-9.64,-0.12,-2.16,9.88
-1.88,-9.62,0.03,9.80,-9.63,-0.11,-2.16,9.86
-1.91,-9.64,0.05,9.82,-9.64,-0.14,-2.18,9.88
-1.92,-9.64,0.06,9.83,-9.65,-0.11,-2.15,9.88
-1.88,-9.65,0.06,9.83,-9.63,-0.10,-2.15,9.87
-1.91,-9.65,0.08,9.83,-9.62,-0.09,-2.15,9.85
-1.89,-9.64,0.08,9.82,-9.63,-0.09,-2.14,9.87
-1.89,-9.62,0.10,9.80,-9.62,-0.12,-2.15,9.86
-1.88,-9.60,0.07,9.78,-9.61,-0.11,-2.17,9.85
-1.90,-9.63,0.07,9.82,-9.58,-0.13,-2.16,9.83
-1.88,-9.62,0.07,9.80,-9.59,-0.09,-2.15,9.83
-1.89,-9.63,0.08,9.81,-9.62,-0.10,-2.14,9.85
-1.88,-9.63,0.11,9.81,-9.61,-0.10,-2.14,9.84
-1.89,-9.62,0.09,9.80,-9.60,-0.12,-2.14,9.83
-1.87,-9.62,0.08,9.80,-9.61,-0.09,-2.14,9.85
-1.87,-9.61,0.08,9.79,-9.63,-0.11,-2.14,9.86
-1.90,-9.61,0.06,9.79,-9.63,-0.12,-2.14,9.86
-1.92,-9.63,0.06,9.82,-9.62,-0.11,-2.13,9.86
-1.92,-9.61,0.04,9.80,-9.62,-0.09,-2.16,9.86
-1.91,-9.64,0.06,9.83,-9.66,-0.07,-2.13,9.89
-1.95,-9.63,0.07,9.83,-9.66,-0.09,-2.15,9.90
-1.92,-9.66,0.07,9.85,-9.64,-0.08,-2.14,9.88
-1.90,-9.64,0.09,9.82,-9.64,-0.10,-2.13,9.88
-1.88,-9.63,0.07,9.81,-9.61,-0.11,-2.16,9.85
-1.90,-9.62,0.06,9.80,-9.60,-0.08,-2.16,9.84
-1.91,-9.59,0.04,9.78,-9.63,-0.08,-2.16,9.87
-1.92,-9.64,0.03,9.83,-9.63,-0.09,-2.14,9.86
-1.89,-9.61,0.05,9.79,-9.60,-0.12,-2.14,9.84
-1.88,-9.62,0.02,9.80,-9.59,-0.09,-2.15,9.82
-1.98,-9.69,0.07,9.89,-9.62,-0.11,-2.26,9.88
-1.94,-9.66,0.22,9.85,-9.58,-0.11,-2.09,9.81
-1.91,-9.57,0.12,9.76,-9.60,-0.12,-2.13,9.84
-1.88,-9.49,-0.03,9.67,-9.64,-0.10,-2.29,9.91
-1.86,-9.71,0.01,9.89,-9.58,-0.11,-2.11,9.81
-1.84,-9.65,-0.06,9.82,-9.65,-0.11,-2.16,9.89
-1.91,-9.68,0.08,9.87,-9.66,-0.09,-2.29,9.93
-1.93,-9.70,0.16,9.89,-9.58,-0.08,-2.23,9.84
-1.91,-9.62,0.14,9.81,-9.60,-0.07,-2.16,9.84
-1.89,-9.57,0.04,9.76,-9.61,-0.10,-2.11,9.84
-1.94,-9.59,-0.03,9.79,-9.60,-0.06,-2.18,9.84
-1.96,-9.63,0.03,9.83,-9.63,-0.09,-2.15,9.86
-1.93,-9.67,0.03,9.86,-9.67,-0.06,-2.14,9.91
-1.88,-9.71,0.04,9.89,-9.70,-0.09,-2.15,9.93
-1.86,-9.71,0.04,9.88,-9.68,-0.14,-2.09,9.90
-1.89,-9.69,0.07,9.87,-9.66,-0.10,-2.15,9.90
-1.89,-9.69,0.09,9.88,-9.65,-0.10,-2.12,9.88
-1.92,-9.67,0.12,9.86,-9.64,-0.07,-2.14,9.87
-1.91,-9.61,0.07,9.80,-9.58,-0.10,-2.12,9.82
-1.87,-9.61,0.05,9.79,-9.62,-0.10,-2.14,9.86
-1.90,-9.63,0.07,9.82,-9.60,-0.11,-2.15,9.83
-1.86,-9.59,0.09,9.77,-9.59,-0.12,-2.17,9.83
-1.86,-9.60,0.09,9.78,-9.60,-0.10,-2.17,9.84
-1.87,-9.60,0.10,9.78,-9.62,-0.11,-2.18,9.86
-1.90,-9.62,0.08,9.80,-9.59,-0.13,-2.18,9.83
-1.92,-9.62,0.08,9.81,-9.60,-0.12,-2.22,9.85
-1.89,-9.63,0.06,9.81,-9.61,-0.11,-2.20,9.86
-1.92,-9.63,0.04,9.82,-9.59,-0.11,-2.19,9.83
-1.88,-9.65,0.07,9.83,-9.61,-0.07,-2.13,9.84
-1.90,-9.63,0.04,9.82,-9.64,-0.06,-2.22,9.89
-1.94,-9.68,0.14,9.87,-9.64,-0.08,-2.29,9.91
-1.90,-9.70,0.18,9.88,-9.66,-0.13,-2.16,9.90
-1.85,-9.63,0.12,9.81,-9.63,-0.17,-2.15,9.87
-1.88,-9.64,0.09,9.82,-9.61,-0.14,-2.20,9.86
-1.90,-9.61,0.09,9.80,-9.60,-0.14,-2.17,9.84
-1.93,-9.69,0.17,9.88,-9.65,-0.11,-2.19,9.90
-1.89,-9.61,0.00,9.79,-9.62,-0.10,-2.16,9.86
-1.87,-9.66,0.15,9.84,-9.62,-0.12,-2.15,9.86
-1.94,-9.68,0.09,9.87,-9.61,-0.10,-2.18,9.86
-1.94,-9.64,0.17,9.83,-9.63,-0.08,-2.22,9.88
-1.91,-9.59,0.22,9.78,-9.59,-0.12,-2.23,9.84
-1.87,-9.63,0.20,9.81,-9.57,-0.12,-2.27,9.84
-1.89,-9.63,0.18,9.82,-9.58,-0.11,-2.22,9.84
-1.90,-9.59,0.16,9.77,-9.58,-0.13,-2.23,9.84
-1.87,-9.58,0.17,9.77,-9.58,-0.11,-2.22,9.84
-1.86,-9.63,0.20,9.81,-9.57,-0.11,-2.23,9.83
-1.88,-9.65,0.05,9.83,-9.60,-0.10,-2.25,9.86
-1.85,-9.55,-0.03,9.73,-9.61,-0.11,-2.22,9.86
-1.91,-9.65,0.27,9.84,-9.58,-0.10,-2.21,9.83
-1.88,-9.66,0.24,9.84,-9.60,-0.12,-2.29,9.87
-1.92,-9.64,0.22,9.83,-9.61,-0.12,-2.25,9.87
-1.89,-9.65,0.14,9.84,-9.61,-0.11,-2.26,9.87
-1.91,-9.63,0.11,9.81,-9.60,-0.10,-2.27,9.87
-1.89,-9.64,0.21,9.83,-9.61,-0.11,-2.27,9.88
-1.92,-9.64,0.20,9.83,-9.60,-0.13,-2.23,9.86
-1.90,-9.64,0.25,9.83,-9.59,-0.13,-2.26,9.85
-1.91,-9.61,0.27,9.80,-9.60,-0.13,-2.26,9.87
-1.91,-9.52,0.17,9.71,-9.59,-0.12,-2.26,9.85
-1.93,-9.62,0.29,9.81,-9.60,-0.12,-2.22,9.86
-1.90,-9.61,0.26,9.80,-9.60,-0.14,-2.28,9.86
-1.91,-9.61,0.26,9.80,-9.57,-0.13,-2.23,9.83
-1.91,-9.64,0.26,9.84,-9.60,-0.12,-2.24,9.86
-1.90,-9.59,0.23,9.78,-9.58,-0.14,-2.27,9.85
-1.87,-9.63,0.19,9.81,-9.60,-0.12,-2.26,9.87
-1.90,-9.61,0.15,9.80,-9.60,-0.15,-2.26,9.86
-1.88,-9.61,0.22,9.79,-9.58,-0.13,-2.30,9.86
-1.90,-9.64,0.23,9.83,-9.59,-0.14,-2.28,9.86
-1.90,-9.61,0.22,9.80,-9.57,-0.12,-2.29,9.84
-1.93,-9.63,0.36,9.83,-9.58,-0.12,-2.31,9.85
-1.90,-9.58,0.26,9.77,-9.57,-0.11,-2.28,9.84
-1.92,-9.65,0.14,9.84,-9.56,-0.11,-2.31,9.84
-1.89,-9.65,0.31,9.84,-9.54,-0.13,-2.32,9.82
-1.89,-9.64,0.33,9.83,-9.60,-0.14,-2.29,9.88
-1.86,-9.61,0.15,9.79,-9.59,-0.14,-2.28,9.86
-1.86,-9.63,0.20,9.81,-9.59,-0.14,-2.28,9.86
-1.92,-9.65,0.24,9.84,-9.61,-0.12,-2.35,9.90
-1.93,-9.64,0.33,9.84,-9.61,-0.15,-2.35,9.90
-1.87,-9.59,0.27,9.78,-9.53,-0.17,-2.18,9.77
-1.90,-9.55,0.37,9.75,-9.57,-0.15,-2.31,9.85
-1.83,-9.60,0.18,9.77,-9.58,-0.18,-2.28,9.85
-1.81,-9.64,0.15,9.81,-9.56,-0.17,-2.23,9.82
-1.83,-9.64,0.27,9.81,-9.61,-0.18,-2.40,9.90
-1.93,-9.61,0.30,9.81,-9.48,-0.20,-2.36,9.77
-1.91,-9.61,0.38,9.80,-9.51,-0.14,-2.27,9.78
-1.90,-9.53,0.30,9.72,-9.52,-0.12,-2.23,9.78
-1.87,-9.57,0.20,9.76,-9.57,-0.13,-2.27,9.84
-1.90,-9.63,0.21,9.82,-9.58,-0.13,-2.28,9.85
-1.89,-9.67,0.27,9.85,-9.61,-0.17,-2.28,9.88
-1.81,-9.63,0.24,9.81,-9.65,-0.16,-2.26,9.92
-1.83,-9.64,0.24,9.82,-9.64,-0.18,-2.25,9.90
-1.84,-9.67,0.26,9.84,-9.62,-0.20,-2.28,9.88
-1.85,-9.61,0.28,9.79,-9.58,-0.17,-2.28,9.85
-1.90,-9.60,0.28,9.79,-9.56,-0.16,-2.29,9.83
-1.88,-9.61,0.30,9.79,-9.55,-0.14,-2.26,9.82
-1.92,-9.59,0.24,9.78,-9.54,-0.14,-2.27,9.81
-1.88,-9.59,0.21,9.77,-9.58,-0.14,-2.23,9.84
-1.89,-9.58,0.18,9.77,-9.58,-0.16,-2.26,9.85
-1.86,-9.61,0.19,9.79,-9.62,-0.18,-2.25,9.88
-1.89,-9.62,0.25,9.81,-9.62,-0.17,-2.25,9.88
-1.87,-9.63,0.23,9.81,-9.61,-0.16,-2.26,9.87
-1.92,-9.65,0.25,9.84,-9.60,-0.15,-2.27,9.86
-1.90,-9.66,0.21,9.85,-9.60,-0.17,-2.22,9.86
-1.87,-9.63,0.19,9.81,-9.65,-0.14,-2.24,9.91
-1.86,-9.67,0.17,9.85,-9.58,-0.15,-2.16,9.83
-1.89,-9.67,0.24,9.86,-9.65,-0.13,-2.35,9.93
-1.91,-9.70,0.29,9.89,-9.60,-0.15,-2.24,9.86
-1.87,-9.62,0.25,9.81,-9.61,-0.15,-2.22,9.87
-1.90,-9.61,0.22,9.80,-9.57,-0.17,-2.27,9.83
-1.89,-9.64,0.29,9.83,-9.59,-0.17,-2.29,9.86
-1.90,-9.63,0.24,9.82,-9.60,-0.14,-2.29,9.87
-1.90,-9.64,0.17,9.82,-9.59,-0.14,-2.25,9.85
-1.86,-9.63,0.17,9.81,-9.60,-0.16,-2.29,9.88
-1.86,-9.66,0.17,9.84,-9.59,-0.15,-2.28,9.86
-1.86,-9.63,0.19,9.81,-9.60,-0.16,-2.29,9.87
-1.87,-9.63,0.20,9.81,-9.59,-0.16,-2.29,9.86
-1.85,-9.63,0.19,9.80,-9.58,-0.15,-2.32,9.86
-1.89,-9.62,0.22,9.81,-9.58,-0.14,-2.27,9.84
-1.86,-9.63,0.22,9.81,-9.57,-0.15,-2.30,9.84
-1.91,-9.62,0.20,9.81,-9.58,-0.15,-2.28,9.85
-1.89,-9.61,0.18,9.80,-9.57,-0.14,-2.28,9.84
-1.89,-9.63,0.18,9.81,-9.61,-0.13,-2.29,9.88
-1.87,-9.62,0.17,9.81,-9.56,-0.12,-2.31,9.83
-1.84,-9.65,0.16,9.82,-9.59,-0.15,-2.32,9.86
-1.92,-9.65,0.18,9.84,-9.60,-0.16,-2.26,9.87
-1.91,-9.66,0.17,9.84,-9.63,-0.15,-2.27,9.89
-1.91,-9.66,0.21,9.85,-9.59,-0.15,-2.22,9.84
-1.91,-9.66,0.17,9.85,-9.61,-0.17,-2.29,9.88
-1.91,-9.64,0.20,9.83,-9.62,-0.13,-2.27,9.88
-1.90,-9.61,0.17,9.80,-9.60,-0.12,-2.32,9.88
-1.87,-9.64,0.17,9.82,-9.61,-0.14,-2.23,9.87
-1.88,-9.59,0.17,9.77,-9.59,-0.15,-2.33,9.87
-1.88,-9.61,0.19,9.79,-9.60,-0.13,-2.25,9.86
-1.91,-9.61,0.20,9.80,-9.57,-0.16,-2.28,9.84
-1.91,-9.59,0.20,9.78,-9.57,-0.15,-2.30,9.84
-1.92,-9.62,0.21,9.81,-9.59,-0.16,-2.23,9.85
-1.92,-9.61,0.20,9.80,-9.61,-0.16,-2.21,9.86
-1.89,-9.63,0.19,9.81,-9.57,-0.15,-2.29,9.84
-1.90,-9.61,0.19,9.79,-9.61,-0.12,-2.26,9.87
-1.88,-9.62,0.20,9.80,-9.60,-0.15,-2.29,9.87
-1.92,-9.64,0.20,9.84,-9.59,-0.14,-2.25,9.85
-1.90,-9.62,0.20,9.80,-9.59,-0.15,-2.24,9.85
-1.89,-9.64,0.17,9.83,-9.60,-0.14,-2.25,9.86
-1.90,-9.63,0.18,9.82,-9.57,-0.14,-2.29,9.85
-1.91,-9.64,0.19,9.83,-9.61,-0.12,-2.29,9.88
-1.90,-9.66,0.17,9.84,-9.58,-0.14,-2.27,9.84
-1.86,-9.63,0.14,9.80,-9.64,-0.13,-2.25,9.90
-1.87,-9.64,0.16,9.82,-9.59,-0.15,-2.27,9.86
-1.99,-9.69,0.29,9.89,-9.62,-0.12,-2.32,9.90
-1.93,-9.63,0.37,9.83,-9.57,-0.14,-2.22,9.83
-1.87,-9.50,0.14,9.68,-9.61,-0.15,-2.29,9.88
-1.80,-9.56,0.02,9.73,-9.67,-0.17,-2.27,9.93
-1.81,-9.68,0.12,9.85,-9.57,-0.16,-2.11,9.80
-1.85,-9.70,0.13,9.87,-9.65,-0.13,-2.17,9.89
-1.94,-9.69,0.22,9.88,-9.61,-0.14,-2.32,9.88
-1.95,-9.65,0.30,9.85,-9.58,-0.16,-2.29,9.85
-1.89,-9.54,0.26,9.73,-9.58,-0.14,-2.17,9.83
-1.90,-9.54,0.12,9.73,-9.54,-0.13,-2.21,9.80
-1.92,-9.60,0.12,9.80,-9.55,-0.14,-2.25,9.82
-1.87,-9.49,-0.04,9.67,-9.59,-0.13,-2.16,9.83
-1.93,-9.69,0.42,9.89,-9.63,-0.14,-2.19,9.88
-1.87,-9.66,0.27,9.85,-9.65,-0.16,-2.18,9.90
-1.85,-9.65,0.21,9.83,-9.62,-0.17,-2.24,9.88
-1.84,-9.64,0.21,9.81,-9.61,-0.16,-2.20,9.86
-1.91,-9.63,0.21,9.82,-9.60,-0.14,-2.21,9.86
-1.93,-9.63,0.26,9.83,-9.60,-0.14,-2.19,9.85
-1.90,-9.63,-0.03,9.81,-9.59,-0.11,-2.18,9.84
-1.92,-9.66,0.31,9.86,-9.59,-0.14,-2.19,9.84
-1.84,-9.54,-0.06,9.71,-9.55,-0.13,-2.17,9.80
-1.95,-9.61,0.51,9.82,-9.58,-0.14,-2.19,9.83
-1.84,-9.57,0.18,9.75,-9.63,-0.15,-2.21,9.88
-1.89,-9.64,0.38,9.83,-9.59,-0.12,-2.18,9.83
-1.85,-9.65,0.13,9.83,-9.62,-0.14,-2.17,9.86
-1.89,-9.62,0.09,9.80,-9.62,-0.14,-2.21,9.87
-1.93,-9.64,0.28,9.84,-9.65,-0.13,-2.18,9.89
-1.89,-9.65,0.10,9.83,-9.66,-0.12,-2.19,9.90
-1.90,-9.59,0.08,9.78,-9.61,-0.10,-2.11,9.84
-1.97,-9.66,0.21,9.86,-9.66,-0.12,-2.23,9.92
-1.95,-9.71,0.28,9.91,-9.66,-0.12,-2.20,9.91
-1.92,-9.65,0.25,9.84,-9.68,-0.13,-2.16,9.92
-1.84,-9.58,-0.00,9.76,-9.61,-0.16,-2.15,9.85
-1.92,-9.63,0.16,9.82,-9.61,-0.15,-2.17,9.85
-1.93,-9.61,0.16,9.81,-9.60,-0.12,-2.18,9.84
-1.90,-9.54,0.14,9.73,-9.63,-0.11,-2.16,9.87
-1.90,-9.61,0.13,9.79,-9.61,-0.12,-2.15,9.85
-1.85,-9.65,0.11,9.82,-9.61,-0.14,-2.14,9.84
-1.86,-9.61,0.09,9.79,-9.63,-0.13,-2.14,9.87
-1.89,-9.69,0.13,9.88,-9.64,-0.11,-2.19,9.89
-1.88,-9.69,0.25,9.88,-9.62,-0.13,-2.19,9.86
-1.86,-9.64,0.04,9.82,-9.61,-0.12,-2.18,9.85
-1.88,-9.66,0.15,9.84,-9.59,-0.13,-2.17,9.84
-1.88,-9.66,0.17,9.84,-9.60,-0.10,-2.19,9.85
-1.88,-9.65,0.01,9.83,-9.62,-0.13,-2.16,9.86
-1.89,-9.60,0.10,9.78,-9.59,-0.13,-2.21,9.84
-1.89,-9.60,0.11,9.79,-9.63,-0.13,-2.21,9.88
-1.90,-9.62,0.08,9.81,-9.62,-0.14,-2.19,9.87
-1.89,-9.66,0.14,9.84,-9.65,-0.12,-2.14,9.88
-1.90,-9.63,0.06,9.82,-9.64,-0.14,-2.17,9.89
-1.89,-9.64,0.10,9.82,-9.62,-0.12,-2.12,9.85
-1.85,-9.54,0.06,9.72,-9.62,-0.11,-2.18,9.87
-1.87,-9.62,0.02,9.80,-9.58,-0.13,-2.18,9.83
-1.88,-9.64,0.06,9.82,-9.62,-0.12,-2.19,9.87
-1.89,-9.63,0.13,9.81,-9.58,-0.11,-2.19,9.83
-1.90,-9.62,0.11,9.81,-9.61,-0.11,-2.18,9.86
-1.91,-9.63,0.11,9.82,-9.60,-0.14,-2.17,9.85
-1.92,-9.60,0.11,9.79,-9.60,-0.10,-2.17,9.85
-1.90,-9.63,0.12,9.82,-9.61,-0.09,-2.17,9.86
-1.90,-9.62,0.12,9.80,-9.63,-0.10,-2.16,9.86
-1.89,-9.55,0.14,9.74,-9.59,-0.11,-2.15,9.83
-1.89,-9.61,0.11,9.80,-9.61,-0.12,-2.17,9.85
-1.90,-9.64,0.10,9.83,-9.62,-0.10,-2.18,9.86
-1.92,-9.63,0.11,9.82,-9.63,-0.10,-2.16,9.87
-1.92,-9.65,0.11,9.84,-9.62,-0.11,-2.15,9.86
-1.93,-9.67,0.21,9.86,-9.63,-0.11,-2.19,9.87
-1.92,-9.64,0.11,9.83,-9.61,-0.11,-2.15,9.84
-1.91,-9.60,0.08,9.79,-9.65,-0.11,-2.19,9.89
-1.87,-9.61,0.06,9.79,-9.61,-0.10,-2.17,9.86
-1.81,-9.62,0.07,9.79,-9.61,-0.14,-2.18,9.85
-1.94,-9.68,0.11,9.87,-9.65,-0.07,-2.24,9.90
-1.93,-9.69,0.25,9.89,-9.63,-0.09,-2.21,9.88
-1.95,-9.57,0.14,9.77,-9.57,-0.08,-2.13,9.80
-1.84,-9.50,-0.02,9.68,-9.66,-0.11,-2.28,9.92
-1.86,-9.61,0.06,9.79,-9.58,-0.14,-2.10,9.81
-1.81,-9.67,0.58,9.86,-9.62,-0.11,-2.04,9.83
-1.93,-9.73,0.06,9.92,-9.64,-0.10,-2.25,9.90
-1.95,-9.69,0.21,9.89,-9.62,-0.09,-2.25,9.87
-1.93,-9.59,0.20,9.79,-9.60,-0.06,-2.16,9.84
-1.92,-9.54,0.14,9.73,-9.57,-0.11,-2.11,9.80
-1.90,-9.60,0.04,9.79,-9.57,-0.11,-2.14,9.80
-1.91,-9.60,0.05,9.79,-9.59,-0.05,-2.17,9.83
-1.94,-9.64,0.06,9.83,-9.68,-0.09,-2.16,9.91
-1.87,-9.67,0.05,9.85,-9.66,-0.08,-2.17,9.90
-1.89,-9.85,0.12,10.03,-9.65,-0.12,-2.12,9.88
-1.87,-9.69,0.12,9.87,-9.66,-0.10,-2.12,9.89
-1.89,-9.68,0.11,9.86,-9.64,-0.08,-2.12,9.87
-1.89,-9.65,0.11,9.83,-9.63,-0.09,-2.11,9.86
-1.92,-9.63,0.08,9.82,-9.60,-0.10,-2.12,9.83
-1.88,-9.62,0.08,9.80,-9.63,-0.10,-2.11,9.86
-1.90,-9.63,0.18,9.82,-9.58,-0.10,-2.09,9.81
-1.88,-9.60,0.13,9.78,-9.63,-0.12,-2.12,9.86
-1.86,-9.62,0.07,9.80,-9.61,-0.10,-2.12,9.84
-1.85,-9.60,0.08,9.78,-9.60,-0.12,-2.16,9.84
-1.87,-9.59,0.07,9.77,-9.56,-0.11,-2.17,9.80
-1.92,-9.63,0.02,9.82,-9.60,-0.10,-2.22,9.86
-1.93,-9.63,0.03,9.82,-9.62,-0.07,-2.15,9.86
-1.87,-9.44,0.00,9.62,-9.65,-0.11,-2.09,9.87
-1.90,-9.66,0.10,9.85,-9.61,-0.08,-2.11,9.84
-1.93,-9.67,0.08,9.86,-9.65,-0.07,-2.16,9.89
-1.94,-9.69,0.13,9.88,-9.66,-0.07,-2.15,9.89
-1.91,-9.66,0.15,9.85,-9.70,-0.09,-2.14,9.93
-1.89,-9.64,0.08,9.82,-9.63,-0.13,-2.13,9.87
-1.92,-9.63,0.06,9.82,-9.62,-0.10,-2.18,9.86
-1.93,-9.64,0.06,9.83,-9.63,-0.06,-2.13,9.86
-1.91,-9.61,0.06,9.80,-9.63,-0.06,-2.18,9.88
-1.89,-9.59,0.08,9.77,-9.61,-0.10,-2.13,9.84
-1.85,-9.60,0.05,9.78,-9.61,-0.08,-2.10,9.83
-1.87,-9.62,0.06,9.80,-9.60,-0.11,-2.14,9.83
-1.88,-9.65,0.05,9.83,-9.60,-0.10,-2.15,9.83
-1.91,-9.64,0.03,9.83,-9.61,-0.12,-2.14,9.84
-1.88,-9.65,0.03,9.83,-9.61,-0.12,-2.12,9.84
-1.92,-9.66,0.03,9.84,-9.63,-0.09,-2.15,9.87
-1.89,-9.63,0.09,9.81,-9.60,-0.10,-2.12,9.83
-1.86,-9.62,0.07,9.80,-9.62,-0.10,-2.16,9.86
-1.86,-9.61,0.08,9.79,-9.63,-0.11,-2.14,9.87
-1.87,-9.61,0.07,9.79,-9.66,-0.11,-2.13,9.89
-1.89,-9.63,0.08,9.82,-9.61,-0.11,-2.14,9.85
-1.88,-9.63,0.07,9.81,-9.63,-0.12,-2.15,9.87
-1.88,-9.66,0.04,9.84,-9.63,-0.10,-2.16,9.87
-1.87,-9.66,0.05,9.84,-9.64,-0.09,-2.15,9.87
-1.88,-9.63,0.07,9.82,-9.63,-0.10,-2.13,9.87
-1.89,-9.64,0.05,9.83,-9.65,-0.09,-2.14,9.88
-1.92,-9.64,0.10,9.83,-9.63,-0.09,-2.15,9.87
-1.89,-9.62,0.09,9.80,-9.63,-0.08,-2.14,9.86
-1.91,-9.63,0.10,9.81,-9.60,-0.08,-2.13,9.84
-1.90,-9.63,0.10,9.82,-9.61,-0.09,-2.14,9.85
-1.87,-9.62,0.07,9.80,-9.61,-0.08,-2.15,9.85
-1.90,-9.63,0.08,9.82,-9.59,-0.10,-2.16,9.83
-1.89,-9.63,0.08,9.81,-9.58,-0.10,-2.14,9.81
-1.87,-9.62,0.06,9.80,-9.62,-0.12,-2.14,9.85
-1.93,-9.62,0.07,9.81,-9.61,-0.10,-2.17,9.86
-1.87,-9.62,0.07,9.80,-9.63,-0.10,-2.12,9.86
-1.89,-9.61,0.07,9.80,-9.60,-0.11,-2.10,9.83
-1.91,-9.61,0.08,9.80,-9.65,-0.09,-2.11,9.88
-1.89,-9.62,0.08,9.81,-9.64,-0.10,-2.11,9.87
-1.91,-9.65,0.08,9.83,-9.63,-0.10,-2.11,9.85
-1.91,-9.65,0.08,9.84,-9.66,-0.07,-2.15,9.89
-1.88,-9.65,0.08,9.83,-9.66,-0.09,-2.13,9.89
-1.92,-9.63,0.05,9.82,-9.64,-0.11,-2.16,9.88
-1.89,-9.67,0.05,9.85,-9.63,-0.09,-2.17,9.87
-1.88,-9.66,0.01,9.84,-9.64,-0.09,-2.13,9.88
-1.89,-9.65,0.04,9.83,-9.64,-0.08,-2.18,9.88
-1.96,-9.69,0.09,9.88,-9.66,-0.09,-2.22,9.91
-1.94,-9.68,0.19,9.87,-9.63,-0.10,-2.15,9.86
-1.92,-9.61,0.13,9.81,-9.60,-0.08,-2.12,9.83
-1.84,-9.50,-0.05,9.67,-9.63,-0.08,-2.19,9.87
-1.87,-9.70,-0.03,9.88,-9.59,-0.11,-2.01,9.80
-1.86,-9.65,-0.02,9.82,-9.66,-0.12,-2.10,9.88
-1.89,-9.69,0.07,9.87,-9.65,-0.11,-2.25,9.91
-1.97,-9.70,0.20,9.90,-9.59,-0.10,-2.23,9.84
-1.93,-9.59,0.21,9.78,-9.62,-0.12,-2.12,9.85
-1.92,-9.59,0.06,9.78,-9.56,-0.09,-2.12,9.79
-1.91,-9.59,-0.01,9.78,-9.58,-0.08,-2.17,9.82
-1.92,-9.62,0.01,9.81,-9.59,-0.08,-2.17,9.83
-1.91,-9.66,0.04,9.84,-9.68,-0.08,-2.14,9.91
-1.90,-9.69,0.03,9.87,-9.66,-0.09,-2.15,9.90
-1.86,-9.69,0.05,9.87,-9.67,-0.08,-2.13,9.90
-1.86,-9.67,0.06,9.85,-9.68,-0.10,-2.17,9.92
-1.92,-9.70,0.10,9.89,-9.63,-0.11,-2.17,9.88
-1.91,-9.67,0.10,9.86,-9.61,-0.11,-2.12,9.84
-1.90,-9.62,0.11,9.80,-9.64,-0.07,-2.08,9.87
-1.90,-9.62,0.11,9.81,-9.59,-0.11,-2.11,9.82
-1.89,-9.59,0.12,9.78,-9.63,-0.12,-2.16,9.87
-1.88,-9.60,0.10,9.79,-9.57,-0.13,-2.14,9.80
-1.84,-9.62,0.10,9.79,-9.63,-0.14,-2.20,9.88
-1.85,-9.60,0.09,9.78,-9.60,-0.15,-2.17,9.84
-1.87,-9.61,0.10,9.79,-9.59,-0.13,-2.19,9.84
-1.88,-9.64,0.13,9.82,-9.60,-0.11,-2.18,9.84
-1.87,-9.60,0.07,9.78,-9.59,-0.10,-2.17,9.84
-1.84,-9.65,0.07,9.82,-9.61,-0.11,-2.17,9.85
-1.88,-9.66,0.08,9.84,-9.60,-0.09,-2.18,9.85
-1.92,-9.67,0.17,9.86,-9.66,-0.09,-2.32,9.94
-1.91,-9.69,0.15,9.87,-9.70,-0.10,-2.14,9.93
-1.87,-9.65,0.18,9.83,-9.66,-0.14,-2.21,9.91
-1.91,-9.66,0.16,9.85,-9.60,-0.12,-2.18,9.84
-1.92,-9.68,0.26,9.87,-9.62,-0.11,-2.21,9.87
-1.92,-9.65,0.17,9.84,-9.65,-0.08,-2.19,9.90
-1.86,-9.60,0.10,9.78,-9.64,-0.10,-2.18,9.89
-1.91,-9.71,0.42,9.91,-9.62,-0.10,-2.22,9.87
-1.86,-9.66,0.14,9.84,-9.64,-0.10,-2.17,9.88
-1.85,-9.62,0.09,9.80,-9.61,-0.12,-2.22,9.87
-1.87,-9.68,0.25,9.86,-9.56,-0.13,-2.19,9.80
-1.86,-9.67,-0.01,9.84,-9.62,-0.11,-2.19,9.87
-1.91,-9.59,0.04,9.78,-9.55,-0.11,-2.25,9.81
-1.88,-9.57,0.15,9.75,-9.54,-0.09,-2.28,9.81
-1.89,-9.61,0.31,9.80,-9.56,-0.15,-2.26,9.83
-1.89,-9.60,0.26,9.79,-9.59,-0.10,-2.23,9.85
-1.86,-9.60,0.08,9.78,-9.59,-0.13,-2.24,9.85
-1.92,-9.64,0.30,9.84,-9.62,-0.11,-2.23,9.88
-1.90,-9.62,0.20,9.81,-9.62,-0.11,-2.23,9.88
-1.88,-9.64,0.15,9.82,-9.62,-0.15,-2.21,9.87
-1.87,-9.55,0.19,9.74,-9.63,-0.13,-2.24,9.89
-1.87,-9.67,0.24,9.85,-9.60,-0.13,-2.22,9.86
-1.90,-9.66,0.22,9.85,-9.61,-0.13,-2.24,9.87
-1.88,-9.63,0.17,9.82,-9.62,-0.12,-2.23,9.87
-1.87,-9.62,0.18,9.81,-9.60,-0.11,-2.27,9.87
-1.92,-9.65,0.31,9.84,-9.60,-0.10,-2.25,9.86
-1.90,-9.64,0.24,9.83,-9.59,-0.12,-2.27,9.85
-1.89,-9.76,0.31,9.94,-9.60,-0.11,-2.26,9.87
-1.86,-9.62,0.09,9.79,-9.55,-0.13,-2.25,9.81
-1.86,-9.67,0.22,9.85,-9.59,-0.14,-2.25,9.85
-1.89,-9.56,0.09,9.75,-9.59,-0.13,-2.26,9.85
-1.86,-9.59,0.14,9.77,-9.58,-0.15,-2.24,9.84
-1.87,-9.61,0.09,9.79,-9.54,-0.13,-2.28,9.81
-1.87,-9.58,0.17,9.77,-9.58,-0.14,-2.26,9.84
-1.89,-9.66,0.25,9.85,-9.56,-0.15,-2.25,9.82
-1.90,-9.65,0.15,9.83,-9.57,-0.13,-2.28,9.84
-1.89,-9.59,0.21,9.77,-9.57,-0.17,-2.25,9.83
-1.86,-9.61,0.16,9.79,-9.56,-0.15,-2.27,9.83
-1.89,-9.66,0.27,9.84,-9.60,-0.17,-2.25,9.86
-1.85,-9.61,0.13,9.79,-9.59,-0.16,-2.28,9.86
-1.85,-9.61,0.19,9.79,-9.58,-0.16,-2.28,9.85
-1.85,-9.66,0.21,9.83,-9.60,-0.14,-2.32,9.87
-1.92,-9.63,0.28,9.83,-9.58,-0.15,-2.33,9.86
-1.86,-9.64,0.42,9.83,-9.54,-0.20,-2.24,9.80
-1.89,-9.55,0.36,9.74,-9.55,-0.14,-2.32,9.83
-1.87,-9.57,0.36,9.76,-9.58,-0.13,-2.33,9.86
-1.84,-9.65,0.20,9.82,-9.60,-0.17,-2.26,9.86
-1.80,-9.63,0.25,9.80,-9.63,-0.17,-2.32,9.90
-1.87,-9.63,0.26,9.82,-9.55,-0.20,-2.41,9.86
-1.90,-9.64,0.31,9.83,-9.55,-0.15,-2.34,9.83
-1.92,-9.61,0.34,9.80,-9.58,-0.11,-2.27,9.84
-1.87,-9.62,0.18,9.80,-9.57,-0.11,-2.26,9.84
-1.88,-9.69,0.17,9.87,-9.63,-0.13,-2.31,9.90
-1.88,-9.73,0.21,9.91,-9.64,-0.15,-2.28,9.91
-1.85,-9.69,0.23,9.87,-9.68,-0.18,-2.30,9.95
-1.80,-9.70,0.22,9.87,-9.64,-0.18,-2.28,9.91
-1.82,-9.68,0.24,9.86,-9.63,-0.21,-2.28,9.90
-1.83,-9.65,0.27,9.82,-9.60,-0.17,-2.30,9.88
-1.88,-9.64,0.31,9.82,-9.57,-0.16,-2.27,9.84
-1.88,-9.61,0.28,9.80,-9.57,-0.15,-2.26,9.84
-1.87,-9.63,0.27,9.81,-9.57,-0.15,-2.23,9.83
-1.83,-9.59,0.25,9.77,-9.59,-0.13,-2.25,9.85
-1.88,-9.57,0.21,9.75,-9.57,-0.14,-2.26,9.84
-1.82,-9.59,0.26,9.77,-9.54,-0.15,-2.26,9.80
-1.81,-9.60,0.26,9.77,-9.57,-0.17,-2.28,9.83
-1.83,-9.62,0.29,9.80,-9.57,-0.17,-2.29,9.84
-1.88,-9.62,0.28,9.80,-9.58,-0.17,-2.30,9.85
-1.87,-9.60,0.26,9.79,-9.55,-0.14,-2.28,9.82
-1.78,-9.62,0.25,9.79,-9.56,-0.15,-2.24,9.82
-1.87,-9.62,0.22,9.80,-9.61,-0.15,-2.25,9.87
-1.90,-9.68,0.32,9.87,-9.60,-0.16,-2.42,9.90
-1.83,-9.64,0.32,9.82,-9.67,-0.12,-2.25,9.93
-1.84,-9.63,0.28,9.81,-9.59,-0.18,-2.20,9.84
-1.89,-9.65,0.25,9.84,-9.63,-0.14,-2.27,9.89
-1.91,-9.67,0.36,9.86,-9.60,-0.13,-2.30,9.87
-1.88,-9.61,0.25,9.80,-9.60,-0.14,-2.27,9.87
-1.87,-9.62,0.16,9.80,-9.58,-0.14,-2.21,9.83
-1.87,-9.64,0.19,9.83,-9.62,-0.15,-2.24,9.87
-1.89,-9.65,0.25,9.83,-9.59,-0.15,-2.26,9.85
-1.88,-9.62,0.24,9.80,-9.58,-0.14,-2.27,9.84
-1.86,-9.62,0.24,9.81,-9.59,-0.14,-2.28,9.85
-1.85,-9.61,0.23,9.79,-9.58,-0.15,-2.28,9.85
-1.87,-9.63,0.26,9.81,-9.58,-0.13,-2.27,9.85
-1.88,-9.62,0.22,9.81,-9.60,-0.15,-2.29,9.87
-1.85,-9.60,0.22,9.77,-9.61,-0.15,-2.27,9.88
-1.88,-9.61,0.21,9.79,-9.57,-0.15,-2.25,9.83
-1.87,-9.63,0.21,9.82,-9.59,-0.17,-2.30,9.86
-1.86,-9.65,0.21,9.83,-9.55,-0.16,-2.24,9.81
-1.90,-9.64,0.20,9.82,-9.62,-0.16,-2.28,9.89
-1.91,-9.66,0.19,9.85,-9.62,-0.16,-2.28,9.89
-1.89,-9.64,0.20,9.82,-9.61,-0.16,-2.28,9.87
-1.89,-9.65,0.20,9.84,-9.60,-0.14,-2.30,9.88
-1.89,-9.60,0.15,9.78,-9.61,-0.11,-2.29,9.88
-1.89,-9.62,0.27,9.81,-9.60,-0.14,-2.31,9.87
-1.86,-9.63,0.17,9.81,-9.59,-0.14,-2.31,9.86
-1.86,-9.61,0.19,9.79,-9.56,-0.13,-2.28,9.83
-1.87,-9.60,0.20,9.78,-9.57,-0.15,-2.29,9.84
-1.86,-9.62,0.22,9.80,-9.58,-0.13,-2.25,9.84
-1.85,-9.62,0.24,9.80,-9.59,-0.14,-2.27,9.85
-1.89,-9.61,0.32,9.80,-9.57,-0.14,-2.25,9.83
-1.91,-9.60,0.13,9.79,-9.58,-0.14,-2.23,9.83
-1.90,-9.61,0.18,9.80,-9.57,-0.14,-2.24,9.83
-1.88,-9.57,0.10,9.75,-9.56,-0.14,-2.26,9.82
-1.91,-9.62,0.15,9.81,-9.60,-0.14,-2.24,9.86
-1.89,-9.59,0.27,9.78,-9.59,-0.14,-2.27,9.86
-1.81,-9.63,0.03,9.80,-9.59,-0.14,-2.23,9.85
-1.88,-9.68,0.07,9.86,-9.64,-0.14,-2.29,9.91
-1.95,-9.66,0.21,9.86,-9.60,-0.12,-2.34,9.88
-1.91,-9.66,0.43,9.86,-9.61,-0.14,-2.26,9.88
-1.88,-9.59,0.18,9.78,-9.59,-0.17,-2.17,9.83
-1.81,-9.54,0.11,9.72,-9.59,-0.12,-2.29,9.86
-1.86,-9.69,0.22,9.87,-9.61,-0.15,-2.21,9.86
-1.84,-9.69,0.11,9.86,-9.64,-0.16,-2.21,9.89
-1.92,-9.65,0.25,9.85,-9.60,-0.17,-2.37,9.89
-1.93,-9.59,0.27,9.78,-9.54,-0.14,-2.27,9.81
-1.88,-9.57,0.25,9.76,-9.56,-0.07,-2.21,9.81
-1.89,-9.54,0.16,9.73,-9.56,-0.10,-2.23,9.81
-1.90,-9.58,0.10,9.76,-9.55,-0.11,-2.27,9.81
-1.90,-9.68,0.47,9.87,-9.63,-0.12,-2.23,9.88
-1.89,-9.65,0.04,9.84,-9.66,-0.10,-2.20,9.90
-1.87,-9.69,0.16,9.87,-9.67,-0.14,-2.20,9.92
-1.86,-9.70,0.15,9.88,-9.66,-0.12,-2.22,9.91
-1.86,-9.67,0.24,9.85,-9.63,-0.15,-2.20,9.87
-1.89,-9.66,0.19,9.85,-9.62,-0.12,-2.22,9.88
-1.88,-9.62,0.18,9.80,-9.60,-0.12,-2.19,9.85
-1.92,-9.63,0.22,9.82,-9.57,-0.13,-2.17,9.81
-1.91,-9.63,0.19,9.81,-9.60,-0.12,-2.19,9.85
-1.86,-9.60,0.15,9.78,-9.59,-0.11,-2.20,9.84
-1.84,-9.60,0.16,9.77,-9.60,-0.12,-2.15,9.84
-1.89,-9.59,0.17,9.77,-9.59,-0.10,-2.18,9.83
-1.82,-9.54,-0.11,9.72,-9.57,-0.13,-2.20,9.82
-1.87,-9.64,0.17,9.82,-9.59,-0.13,-2.22,9.85
-1.89,-9.66,0.15,9.85,-9.61,-0.13,-2.21,9.86
-1.87,-9.63,0.11,9.81,-9.63,-0.11,-2.18,9.87
-1.79,-9.58,0.00,9.74,-9.61,-0.11,-2.13,9.84
-1.92,-9.73,0.28,9.92,-9.66,-0.11,-2.22,9.91
-1.93,-9.72,0.23,9.91,-9.63,-0.14,-2.22,9.89
-1.86,-9.65,0.17,9.83,-9.66,-0.11,-2.12,9.89
-1.90,-9.68,0.20,9.87,-9.64,-0.15,-2.14,9.87
-1.89,-9.70,0.20,9.88,-9.62,-0.12,-2.22,9.87
-1.90,-9.60,0.12,9.78,-9.60,-0.11,-2.21,9.85
-1.91,-9.61,0.08,9.80,-9.61,-0.06,-2.12,9.84
-1.86,-9.60,0.07,9.77,-9.63,-0.13,-2.16,9.87
-1.88,-9.64,0.14,9.83,-9.60,-0.12,-2.20,9.85
-1.86,-9.62,0.14,9.80,-9.65,-0.12,-2.15,9.88
-1.87,-9.63,0.09,9.81,-9.61,-0.11,-2.18,9.85
-1.89,-9.62,0.12,9.81,-9.63,-0.11,-2.21,9.88
-1.89,-9.62,0.06,9.81,-9.62,-0.09,-2.20,9.87
-1.92,-9.63,0.09,9.82,-9.58,-0.10,-2.17,9.83
-1.91,-9.61,0.17,9.80,-9.61,-0.09,-2.20,9.86
-1.88,-9.64,0.16,9.82,-9.57,-0.12,-2.17,9.81
-1.87,-9.63,0.15,9.81,-9.60,-0.12,-2.18,9.85
-1.86,-9.63,0.14,9.81,-9.61,-0.10,-2.19,9.85
-1.85,-9.63,0.03,9.81,-9.61,-0.14,-2.15,9.85
-1.84,-9.55,0.09,9.73,-9.61,-0.12,-2.15,9.85
-1.89,-9.63,0.09,9.82,-9.60,-0.13,-2.17,9.84
-1.89,-9.67,0.09,9.85,-9.62,-0.14,-2.16,9.86
-1.87,-9.64,0.14,9.82,-9.60,-0.13,-2.16,9.84
-1.88,-9.64,0.15,9.83,-9.63,-0.12,-2.17,9.87
-1.89,-9.70,0.16,9.89,-9.62,-0.12,-2.19,9.87
-1.89,-9.63,0.14,9.81,-9.62,-0.09,-2.15,9.86
-1.87,-9.65,0.13,9.83,-9.63,-0.09,-2.17,9.87
-1.90,-9.62,0.13,9.81,-9.60,-0.08,-2.16,9.84
-1.90,-9.63,0.13,9.82,-9.60,-0.13,-2.17,9.84
-1.89,-9.63,0.12,9.82,-9.60,-0.11,-2.19,9.85
-1.89,-9.62,0.13,9.81,-9.60,-0.11,-2.18,9.84
-1.87,-9.63,0.09,9.81,-9.60,-0.12,-2.16,9.84
-1.87,-9.61,0.09,9.79,-9.62,-0.11,-2.16,9.86
-1.88,-9.60,0.10,9.79,-9.61,-0.12,-2.14,9.85
-1.83,-9.62,-0.25,9.79,-9.65,-0.13,-2.17,9.89
-1.89,-9.66,0.10,9.85,-9.62,-0.13,-2.14,9.86
-1.90,-9.64,0.12,9.83,-9.61,-0.11,-2.17,9.85
-1.90,-9.65,0.11,9.84,-9.61,-0.09,-2.14,9.85
-1.88,-9.63,0.08,9.82,-9.64,-0.07,-2.16,9.88
-1.90,-9.63,0.11,9.81,-9.63,-0.10,-2.16,9.87
-1.86,-9.64,0.09,9.82,-9.63,-0.12,-2.15,9.87
-1.82,-9.63,0.07,9.81,-9.65,-0.11,-2.14,9.89
-1.90,-9.66,0.10,9.84,-9.63,-0.12,-2.18,9.88
-1.98,-9.77,0.28,9.97,-9.66,-0.11,-2.28,9.93
-1.93,-9.60,0.23,9.80,-9.59,-0.10,-2.06,9.81
-1.87,-9.45,0.00,9.63,-9.62,-0.13,-2.23,9.87
-1.82,-9.63,0.00,9.80,-9.62,-0.11,-2.17,9.86
-1.84,-9.66,0.03,9.83,-9.57,-0.16,-2.01,9.78
-1.87,-9.65,0.04,9.83,-9.65,-0.13,-2.20,9.90
-1.96,-9.65,0.24,9.85,-9.64,-0.10,-2.24,9.90
-1.93,-9.60,0.22,9.80,-9.61,-0.12,-2.14,9.85
-1.88,-9.54,0.12,9.72,-9.57,-0.11,-2.10,9.80
-1.90,-9.57,0.02,9.76,-9.59,-0.09,-2.15,9.83
-1.93,-9.60,0.01,9.79,-9.60,-0.09,-2.18,9.84
-1.92,-9.51,0.03,9.71,-9.63,-0.09,-2.15,9.87
-1.88,-9.63,0.04,9.81,-9.67,-0.09,-2.15,9.91
-1.86,-9.66,0.10,9.84,-9.67,-0.11,-2.15,9.91
-1.85,-9.68,0.09,9.86,-9.68,-0.15,-2.13,9.91
-1.87,-9.68,0.14,9.86,-9.65,-0.11,-2.13,9.88
-1.90,-9.65,0.14,9.83,-9.60,-0.09,-2.11,9.83
-1.93,-9.59,0.07,9.78,-9.63,-0.08,-2.09,9.86
-1.91,-9.61,0.05,9.80,-9.61,-0.06,-2.13,9.85
-1.91,-9.60,0.09,9.79,-9.64,-0.08,-2.11,9.87
-1.89,-9.60,0.06,9.79,-9.58,-0.11,-2.11,9.81
-1.87,-9.61,0.08,9.79,-9.61,-0.11,-2.11,9.84
-1.85,-9.63,0.09,9.81,-9.61,-0.11,-2.13,9.84
-1.86,-9.63,0.12,9.81,-9.63,-0.14,-2.13,9.86
-1.89,-9.61,0.08,9.80,-9.61,-0.10,-2.14,9.84
-1.89,-9.62,0.07,9.81,-9.60,-0.08,-2.13,9.84
-1.91,-9.61,0.08,9.79,-9.61,-0.09,-2.14,9.85
-1.88,-9.64,0.08,9.82,-9.65,-0.08,-2.12,9.88
-1.92,-9.63,0.09,9.83,-9.62,-0.07,-2.07,9.84
-1.89,-9.66,0.03,9.84,-9.66,-0.10,-2.21,9.91
-1.90,-9.70,0.20,9.89,-9.66,-0.09,-2.09,9.88
-1.90,-9.73,0.31,9.91,-9.67,-0.10,-2.12,9.90
-1.88,-9.60,-0.03,9.78,-9.60,-0.10,-2.11,9.83
-1.92,-9.65,0.04,9.84,-9.62,-0.11,-2.17,9.86
-1.93,-9.60,0.07,9.79,-9.64,-0.07,-2.17,9.88
-1.88,-9.60,0.06,9.79,-9.63,-0.09,-2.15,9.87
-1.86,-9.63,0.06,9.80,-9.61,-0.08,-2.10,9.83
-1.85,-9.62,0.05,9.80,-9.63,-0.07,-2.11,9.86
-1.86,-9.66,0.05,9.84,-9.64,-0.10,-2.13,9.88
-1.87,-9.66,0.03,9.84,-9.64,-0.10,-2.14,9.88
-1.92,-9.65,0.03,9.84,-9.64,-0.11,-2.15,9.87
-1.90,-9.64,0.06,9.83,-9.62,-0.12,-2.13,9.85
-1.88,-9.60,0.08,9.78,-9.63,-0.08,-2.13,9.86
-1.88,-9.64,0.09,9.82,-9.62,-0.11,-2.13,9.85
-1.86,-9.62,0.10,9.80,-9.58,-0.11,-2.11,9.81
-1.85,-9.60,0.11,9.78,-9.61,-0.11,-2.14,9.84
-1.89,-9.60,0.07,9.79,-9.62,-0.10,-2.15,9.85
-1.87,-9.61,0.08,9.79,-9.62,-0.11,-2.15,9.85
-1.86,-9.64,0.07,9.82,-9.66,-0.11,-2.13,9.89
-1.88,-9.63,0.07,9.81,-9.65,-0.12,-2.14,9.88
-1.86,-9.62,0.08,9.80,-9.61,-0.08,-2.11,9.84
-1.89,-9.63,0.10,9.82,-9.61,-0.09,-2.15,9.85
-1.89,-9.66,0.11,9.84,-9.64,-0.08,-2.14,9.88
-1.88,-9.64,0.07,9.83,-9.63,-0.10,-2.14,9.87
-1.88,-9.65,0.09,9.83,-9.62,-0.10,-2.13,9.85
-1.89,-9.64,0.08,9.82,-9.64,-0.11,-2.17,9.88
-1.90,-9.62,0.08,9.81,-9.64,-0.09,-2.14,9.88
-1.87,-9.62,0.09,9.80,-9.61,-0.08,-2.14,9.85
-1.87,-9.61,0.10,9.79,-9.61,-0.10,-2.13,9.85
-1.84,-9.63,0.09,9.81,-9.61,-0.11,-2.15,9.85
-1.86,-9.63,0.10,9.81,-9.62,-0.10,-2.11,9.85
-1.84,-9.60,0.11,9.77,-9.62,-0.13,-2.15,9.86
-1.88,-9.63,0.08,9.81,-9.61,-0.11,-2.14,9.85
-1.89,-9.61,0.09,9.79,-9.62,-0.09,-2.11,9.85
-1.90,-9.63,0.07,9.82,-9.59,-0.09,-2.14,9.83
-1.90,-9.65,0.06,9.84,-9.63,-0.08,-2.13,9.86
-1.91,-9.63,0.10,9.82,-9.61,-0.09,-2.15,9.85
-1.91,-9.65,0.07,9.84,-9.64,-0.09,-2.15,9.88
-1.87,-9.66,0.09,9.85,-9.62,-0.09,-2.14,9.86
-1.90,-9.64,0.10,9.83,-9.62,-0.09,-2.15,9.86
-1.89,-9.64,0.08,9.83,-9.65,-0.09,-2.15,9.89
-1.89,-9.66,0.07,9.84,-9.65,-0.10,-2.13,9.88
-1.88,-9.65,0.06,9.83,-9.61,-0.10,-2.13,9.84
-1.84,-9.62,0.07,9.79,-9.64,-0.10,-2.12,9.87
-1.84,-9.63,0.04,9.80,-9.63,-0.10,-2.12,9.87
-1.91,-9.68,0.06,9.87,-9.64,-0.10,-2.18,9.88
-1.94,-9.73,0.22,9.92,-9.68,-0.09,-2.11,9.91
-1.93,-9.66,0.10,9.85,-9.60,-0.10,-2.07,9.82
-1.85,-9.50,-0.05,9.68,-9.65,-0.11,-2.28,9.92
-1.82,-9.70,0.00,9.87,-9.63,-0.15,-2.09,9.86
-1.84,-9.66,-0.05,9.84,-9.60,-0.13,-2.01,9.81
-1.88,-9.70,0.10,9.88,-9.66,-0.12,-2.26,9.92
-1.94,-9.67,0.23,9.86,-9.60,-0.08,-2.21,9.85
-1.88,-9.60,0.19,9.79,-9.61,-0.07,-2.15,9.84
-1.88,-9.54,0.10,9.73,-9.56,-0.10,-2.08,9.79
-1.89,-9.57,0.03,9.75,-9.63,-0.08,-2.21,9.88
-1.93,-9.61,0.04,9.80,-9.60,-0.07,-2.18,9.85
-1.91,-9.68,0.05,9.87,-9.67,-0.08,-2.15,9.91
-1.87,-9.69,0.09,9.87,-9.71,-0.09,-2.15,9.94
-1.85,-9.73,0.08,9.91,-9.67,-0.10,-2.15,9.91
-1.87,-9.73,0.11,9.91,-9.68,-0.12,-2.18,9.92
-1.87,-9.69,0.13,9.87,-9.62,-0.12,-2.19,9.87
-1.87,-9.65,0.15,9.83,-9.63,-0.12,-2.19,9.87
-1.90,-9.61,0.14,9.80,-9.60,-0.08,-2.15,9.84
-1.87,-9.62,0.13,9.80,-9.61,-0.09,-2.21,9.86
-1.90,-9.60,0.11,9.78,-9.55,-0.12,-2.14,9.79
-1.88,-9.62,0.23,9.80,-9.59,-0.12,-2.19,9.83
-1.86,-9.59,0.11,9.77,-9.57,-0.10,-2.16,9.82
-1.83,-9.60,0.10,9.78,-9.58,-0.15,-2.22,9.84
-1.86,-9.62,0.19,9.80,-9.60,-0.11,-2.18,9.84
-1.89,-9.62,0.12,9.81,-9.61,-0.10,-2.21,9.86
-1.91,-9.71,0.10,9.90,-9.61,-0.07,-2.18,9.85
-1.92,-9.63,0.04,9.82,-9.60,-0.10,-2.20,9.85
-1.86,-9.64,0.20,9.82,-9.60,-0.09,-2.19,9.85
-1.92,-9.63,0.10,9.82,-9.62,-0.06,-2.23,9.87
-1.91,-9.62,0.17,9.81,-9.62,-0.11,-2.30,9.90
-1.85,-9.64,0.21,9.82,-9.64,-0.11,-2.22,9.89
-1.79,-9.54,0.11,9.70,-9.59,-0.16,-2.22,9.84
-1.89,-9.59,0.20,9.78,-9.56,-0.08,-2.24,9.82
-1.89,-9.59,0.18,9.78,-9.60,-0.10,-2.22,9.85
-1.91,-9.61,0.17,9.80,-9.61,-0.07,-2.22,9.86
-1.90,-9.64,0.16,9.83,-9.61,-0.11,-2.20,9.86
-1.87,-9.66,0.23,9.84,-9.60,-0.11,-2.17,9.84
-1.90,-9.77,0.35,9.96,-9.66,-0.12,-2.20,9.90
-1.83,-9.60,-0.10,9.77,-9.63,-0.13,-2.16,9.87
-1.87,-9.61,0.23,9.80,-9.57,-0.10,-2.23,9.83
-1.87,-9.62,0.19,9.80,-9.59,-0.12,-2.24,9.85
-1.85,-9.60,0.13,9.78,-9.56,-0.13,-2.23,9.81
-1.88,-9.59,0.18,9.78,-9.55,-0.12,-2.21,9.80
-1.86,-9.61,0.21,9.79,-9.58,-0.14,-2.25,9.84
-1.86,-9.60,0.21,9.78,-9.59,-0.13,-2.22,9.85
-1.87,-9.61,0.20,9.79,-9.58,-0.11,-2.19,9.83
-1.89,-9.69,0.29,9.87,-9.60,-0.12,-2.20,9.85
-1.88,-9.61,0.20,9.79,-9.57,-0.11,-2.18,9.82
-1.90,-9.61,0.45,9.81,-9.57,-0.16,-2.23,9.83
-1.89,-9.58,0.33,9.77,-9.54,-0.18,-2.26,9.81
-1.87,-9.60,0.25,9.78,-9.58,-0.16,-2.23,9.83
-1.89,-9.61,0.25,9.80,-9.62,-0.18,-2.35,9.90
-1.85,-9.57,0.22,9.75,-9.54,-0.16,-2.32,9.82
-1.81,-9.56,0.15,9.73,-9.56,-0.17,-2.33,9.84
-1.82,-9.61,0.10,9.78,-9.61,-0.15,-2.27,9.88
-1.80,-9.66,0.09,9.83,-9.61,-0.17,-2.23,9.86
-1.84,-9.72,0.14,9.89,-9.70,-0.13,-2.16,9.94
-1.85,-9.74,0.21,9.91,-9.72,-0.13,-2.16,9.96
-1.87,-9.75,0.28,9.93,-9.73,-0.11,-2.08,9.95
-1.86,-9.76,0.32,9.94,-9.73,-0.07,-2.12,9.96
-1.88,-9.70,0.33,9.89,-9.68,-0.07,-2.16,9.91
-1.89,-9.66,0.30,9.85,-9.62,-0.04,-2.10,9.85
-1.91,-9.57,0.26,9.76,-9.62,-0.03,-2.17,9.86
-1.89,-9.61,0.20,9.80,-9.61,-0.02,-2.16,9.85
-1.94,-9.73,0.10,9.92,-9.57,-0.01,-2.16,9.82
-1.86,-9.56,-0.03,9.74,-9.55,-0.03,-2.20,9.80
-1.90,-9.59,0.30,9.78,-9.56,-0.02,-2.19,9.80
-1.98,-9.58,0.44,9.79,-9.54,-0.02,-2.20,9.79
-1.91,-9.57,0.25,9.76,-9.58,-0.06,-2.18,9.82
-1.93,-9.60,0.21,9.80,-9.64,-0.05,-2.20,9.89
-1.95,-9.61,0.26,9.81,-9.60,-0.07,-2.17,9.84
-1.95,-9.60,0.26,9.80,-9.60,-0.09,-2.20,9.85
-1.94,-9.57,0.22,9.77,-9.57,-0.10,-2.21,9.82
-2.06,-9.65,0.50,9.88,-9.59,-0.11,-2.30,9.86
-1.95,-9.58,0.41,9.79,-9.57,-0.15,-2.37,9.85
-1.96,-9.56,0.36,9.77,-9.49,-0.17,-2.26,9.76
-1.88,-9.45,0.11,9.63,-9.50,-0.21,-2.35,9.79
-1.81,-9.53,0.10,9.70,-9.54,-0.21,-2.37,9.83
-1.73,-9.64,0.18,9.80,-9.54,-0.23,-2.31,9.81
-1.73,-9.62,0.16,9.77,-9.51,-0.29,-2.54,9.85
-1.80,-9.60,0.19,9.77,-9.50,-0.28,-2.46,9.81
-1.81,-9.59,0.19,9.77,-9.54,-0.19,-2.31,9.81
-1.83,-9.62,0.03,9.79,-9.57,-0.13,-2.27,9.83
-1.85,-9.69,-0.03,9.87,-9.61,-0.05,-2.25,9.87
-1.87,-9.81,0.00,9.98,-9.73,-0.03,-2.23,9.98
-1.87,-9.81,0.10,9.99,-9.78,-0.04,-2.19,10.02
-1.86,-9.81,0.13,9.99,-9.80,-0.03,-2.20,10.04
-1.85,-9.77,0.18,9.95,-9.78,-0.06,-2.17,10.02
-1.90,-9.72,0.24,9.91,-9.67,-0.09,-2.19,9.92
-1.91,-9.66,0.30,9.85,-9.66,-0.09,-2.16,9.90
-1.88,-9.60,0.30,9.79,-9.57,-0.06,-2.15,9.80
-1.92,-9.58,0.28,9.77,-9.55,-0.08,-2.16,9.79
-1.84,-9.55,0.29,9.73,-9.55,-0.10,-2.16,9.79
-1.87,-9.55,0.25,9.73,-9.53,-0.11,-2.16,9.78
-1.82,-9.54,0.22,9.72,-9.56,-0.14,-2.16,9.80
-1.80,-9.58,0.20,9.75,-9.57,-0.13,-2.18,9.81
-1.83,-9.57,0.21,9.75,-9.58,-0.12,-2.21,9.83
-1.83,-9.60,0.24,9.78,-9.57,-0.11,-2.22,9.82
-1.86,-9.60,0.26,9.78,-9.56,-0.13,-2.23,9.81
-1.87,-9.63,0.26,9.81,-9.55,-0.11,-2.22,9.80
-1.81,-9.62,0.22,9.80,-9.59,-0.12,-2.21,9.84
-1.87,-9.65,0.18,9.83,-9.62,-0.15,-2.27,9.88
-1.89,-9.66,0.29,9.85,-9.59,-0.14,-2.37,9.88
-1.91,-9.64,0.25,9.83,-9.63,-0.14,-2.17,9.87
-1.87,-9.60,0.19,9.78,-9.63,-0.15,-2.20,9.88
-1.91,-9.61,0.16,9.80,-9.64,-0.14,-2.19,9.89
-1.95,-9.64,0.21,9.83,-9.61,-0.10,-2.21,9.86
-1.93,-9.63,0.15,9.82,-9.63,-0.10,-2.22,9.89
-1.90,-9.67,0.11,9.86,-9.62,-0.10,-2.18,9.87
-1.86,-9.68,0.11,9.86,-9.64,-0.10,-2.13,9.88
-1.87,-9.66,0.14,9.84,-9.65,-0.10,-2.19,9.90
-1.87,-9.64,0.15,9.82,-9.62,-0.10,-2.22,9.87
-1.85,-9.63,0.16,9.81,-9.61,-0.11,-2.23,9.86
-1.86,-9.64,0.16,9.82,-9.58,-0.09,-2.21,9.83
-1.87,-9.61,0.17,9.79,-9.57,-0.06,-2.24,9.83
-1.90,-9.63,0.17,9.81,-9.57,-0.08,-2.24,9.83
-1.84,-9.63,0.13,9.81,-9.59,-0.06,-2.25,9.85
-1.85,-9.63,0.14,9.81,-9.58,-0.09,-2.24,9.84
-1.85,-9.62,0.14,9.80,-9.61,-0.05,-2.22,9.86
-1.85,-9.61,0.16,9.79,-9.61,-0.11,-2.25,9.87
-1.87,-9.62,0.27,9.80,-9.60,-0.08,-2.22,9.85
-1.92,-9.64,0.21,9.83,-9.62,-0.09,-2.22,9.87
-1.93,-9.67,0.45,9.87,-9.63,-0.11,-2.23,9.89
-1.94,-9.66,0.13,9.86,-9.65,-0.14,-2.20,9.90
-1.92,-9.68,0.16,9.87,-9.61,-0.09,-2.19,9.86
-1.88,-9.64,0.19,9.82,-9.60,-0.10,-2.18,9.84
-1.89,-9.65,0.20,9.83,-9.62,-0.09,-2.21,9.88
-1.87,-9.63,0.16,9.81,-9.61,-0.09,-2.18,9.85
-1.86,-9.62,0.19,9.80,-9.57,-0.11,-2.21,9.82
-1.89,-9.62,0.20,9.80,-9.58,-0.11,-2.18,9.83
-1.89,-9.62,0.10,9.80,-9.58,-0.09,-2.19,9.83
-1.91,-9.59,0.45,9.79,-9.59,-0.08,-2.18,9.84
-1.91,-9.68,0.45,9.88,-9.59,-0.07,-2.20,9.84
-1.90,-9.64,-0.01,9.82,-9.60,-0.07,-2.14,9.83
-1.87,-9.56,0.25,9.75,-9.61,-0.09,-2.17,9.85
-1.89,-9.65,0.06,9.83,-9.62,-0.08,-2.19,9.86
-1.93,-9.64,0.11,9.83,-9.62,-0.06,-2.16,9.86
-1.95,-9.65,0.15,9.85,-9.64,-0.08,-2.19,9.89
-1.92,-9.64,0.14,9.83,-9.61,-0.08,-2.19,9.86
-1.95,-9.65,0.12,9.84,-9.63,-0.07,-2.21,9.88
-1.93,-9.65,0.13,9.84,-9.61,-0.10,-2.22,9.87
-1.94,-9.71,0.23,9.91,-9.64,-0.09,-2.21,9.89
-1.88,-9.57,0.03,9.76,-9.59,-0.09,-2.20,9.84
-1.93,-9.65,0.19,9.84,-9.60,-0.06,-2.22,9.85
-1.90,-9.64,0.04,9.82,-9.64,-0.07,-2.18,9.88
-1.92,-9.62,0.11,9.81,-9.65,-0.06,-2.19,9.89
-1.89,-9.65,0.14,9.83,-9.60,-0.08,-2.24,9.86
-1.86,-9.61,0.10,9.79,-9.60,-0.06,-2.21,9.85
-1.93,-9.66,0.25,9.85,-9.61,-0.08,-2.23,9.87
-2.00,-9.67,0.18,9.88,-9.64,-0.05,-2.29,9.91
-1.93,-9.61,0.21,9.81,-9.58,-0.11,-2.14,9.81
-1.85,-9.53,0.11,9.71,-9.57,-0.09,-2.17,9.81
-1.83,-9.58,0.04,9.75,-9.61,-0.10,-2.20,9.86
-1.88,-9.68,0.06,9.86,-9.60,-0.11,-2.10,9.83
-1.89,-9.67,0.15,9.86,-9.64,-0.13,-2.28,9.90
-1.93,-9.68,0.27,9.88,-9.55,-0.11,-2.26,9.81
-1.96,-9.59,0.26,9.79,-9.59,-0.07,-2.22,9.85
-1.91,-9.55,0.17,9.74,-9.57,-0.08,-2.13,9.80
-1.88,-9.24,-0.08,9.43,-9.53,-0.05,-2.14,9.76
-1.98,-9.65,0.54,9.86,-9.61,-0.06,-2.24,9.86
-1.96,-9.70,0.16,9.90,-9.68,-0.06,-2.16,9.92
-1.89,-9.66,0.20,9.85,-9.66,-0.08,-2.19,9.90
-1.90,-9.73,0.14,9.92,-9.65,-0.10,-2.17,9.89
-1.90,-9.68,0.11,9.86,-9.68,-0.07,-2.15,9.92
-1.92,-9.65,0.15,9.84,-9.62,-0.10,-2.18,9.86
-1.93,-9.66,0.14,9.85,-9.63,-0.07,-2.15,9.86
-1.94,-9.67,0.14,9.86,-9.60,-0.08,-2.12,9.83
-1.95,-9.60,0.06,9.80,-9.63,-0.06,-2.16,9.87
-1.92,-9.63,0.09,9.82,-9.62,-0.08,-2.17,9.86
-1.92,-9.61,0.07,9.80,-9.61,-0.07,-2.13,9.84
-1.92,-9.61,0.10,9.80,-9.62,-0.08,-2.13,9.86
-1.90,-9.58,0.11,9.77,-9.65,-0.07,-2.14,9.88
-1.90,-9.58,0.11,9.76,-9.61,-0.09,-2.15,9.85
-1.93,-9.62,0.11,9.81,-9.63,-0.09,-2.15,9.86
-1.94,-9.64,0.10,9.83,-9.60,-0.10,-2.18,9.84
-1.93,-9.61,0.10,9.80,-9.64,-0.08,-2.14,9.87
-1.87,-9.64,-0.05,9.82,-9.67,-0.10,-2.14,9.90
-1.89,-9.65,0.28,9.84,-9.59,-0.09,-2.11,9.82
-1.91,-9.64,0.17,9.83,-9.64,-0.08,-2.22,9.89
-1.91,-9.68,0.11,9.86,-9.63,-0.08,-2.14,9.87
-1.87,-9.63,0.12,9.81,-9.66,-0.08,-2.15,9.90
-1.88,-9.67,0.18,9.85,-9.60,-0.14,-2.12,9.84
-1.87,-9.61,0.08,9.79,-9.62,-0.11,-2.18,9.87
-1.92,-9.62,0.08,9.81,-9.61,-0.07,-2.16,9.85
-1.90,-9.66,0.07,9.84,-9.63,-0.06,-2.14,9.86
-1.85,-9.62,0.09,9.80,-9.63,-0.06,-2.16,9.87
-1.87,-9.64,0.09,9.82,-9.65,-0.12,-2.12,9.88
-1.87,-9.64,0.08,9.82,-9.60,-0.10,-2.14,9.83
-1.87,-9.63,0.08,9.81,-9.66,-0.09,-2.14,9.89
-1.88,-9.64,0.08,9.82,-9.63,-0.11,-2.18,9.87
-1.87,-9.63,0.10,9.81,-9.62,-0.09,-2.15,9.85
-1.90,-9.62,0.06,9.80,-9.60,-0.10,-2.14,9.84
-1.88,-9.62,0.10,9.80,-9.59,-0.10,-2.16,9.83
-1.89,-9.65,0.11,9.83,-9.59,-0.12,-2.14,9.83
-1.89,-9.64,0.10,9.83,-9.63,-0.08,-2.11,9.86
-1.89,-9.61,0.06,9.80,-9.63,-0.10,-2.15,9.87
-1.88,-9.65,0.04,9.83,-9.62,-0.10,-2.15,9.86
-1.88,-9.64,0.07,9.82,-9.63,-0.12,-2.15,9.87
-1.90,-9.65,0.06,9.84,-9.65,-0.08,-2.16,9.89
-1.91,-9.66,0.07,9.85,-9.64,-0.07,-2.14,9.88
-1.90,-9.65,0.08,9.84,-9.66,-0.09,-2.16,9.90
-1.90,-9.63,0.08,9.81,-9.62,-0.06,-2.15,9.86
-1.88,-9.64,0.07,9.82,-9.62,-0.08,-2.14,9.85
-1.87,-9.63,0.08,9.81,-9.64,-0.08,-2.16,9.88
-1.90,-9.63,0.09,9.81,-9.59,-0.13,-2.16,9.84
-1.87,-9.59,0.08,9.77,-9.58,-0.10,-2.16,9.82
-1.86,-9.61,0.08,9.79,-9.62,-0.12,-2.15,9.86
-1.89,-9.63,0.08,9.81,-9.60,-0.09,-2.15,9.84
-1.88,-9.63,0.09,9.81,-9.64,-0.11,-2.15,9.88
-1.88,-9.67,0.07,9.85,-9.61,-0.10,-2.14,9.84
-1.87,-9.66,0.05,9.84,-9.64,-0.09,-2.12,9.87
-1.88,-9.66,0.10,9.84,-9.65,-0.10,-2.14,9.88
-1.88,-9.68,0.24,9.86,-9.63,-0.11,-2.16,9.87
-1.87,-9.63,0.10,9.81,-9.62,-0.10,-2.15,9.86
-1.92,-9.62,0.06,9.81,-9.61,-0.08,-2.16,9.85
-1.89,-9.64,0.08,9.82,-9.61,-0.10,-2.15,9.85
-1.88,-9.62,0.07,9.81,-9.64,-0.09,-2.17,9.89
-1.87,-9.61,0.04,9.79,-9.61,-0.11,-2.15,9.85
-1.88,-9.61,0.05,9.80,-9.63,-0.08,-2.15,9.87
-1.87,-9.63,0.08,9.81,-9.62,-0.10,-2.15,9.85
-1.89,-9.61,0.06,9.79,-9.62,-0.08,-2.13,9.86
-1.88,-9.61,0.05,9.80,-9.61,-0.10,-2.15,9.85
-1.90,-9.63,0.07,9.82,-9.61,-0.10,-2.15,9.85
-1.91,-9.65,0.07,9.84,-9.63,-0.08,-2.14,9.87
-1.87,-9.62,0.04,9.80,-9.64,-0.09,-2.14,9.87
-1.82,-9.66,0.01,9.83,-9.66,-0.10,-2.15,9.89
-1.98,-9.72,0.08,9.92,-9.65,-0.09,-2.18,9.89
-1.93,-9.70,0.25,9.89,-9.67,-0.09,-2.20,9.91
-1.89,-9.60,0.08,9.79,-9.58,-0.11,-2.13,9.81
-1.84,-9.53,-0.05,9.70,-9.68,-0.10,-2.31,9.95
-1.85,-9.74,0.00,9.92,-9.61,-0.11,-2.06,9.83
-1.81,-9.63,-0.03,9.80,-9.63,-0.12,-2.07,9.85
-1.93,-9.71,0.11,9.90,-9.62,-0.11,-2.28,9.89
-1.93,-9.68,0.21,9.87,-9.58,-0.09,-2.23,9.84
-1.91,-9.59,0.14,9.78,-9.59,-0.10,-2.15,9.82
-1.91,-9.53,0.06,9.72,-9.60,-0.08,-2.14,9.83
-1.94,-9.59,-0.00,9.78,-9.57,-0.09,-2.18,9.82
-1.94,-9.64,0.05,9.83,-9.60,-0.07,-2.20,9.85
-1.92,-9.66,0.06,9.85,-9.66,-0.07,-2.15,9.90
-1.83,-9.66,0.04,9.84,-9.67,-0.10,-2.17,9.91
-1.84,-9.72,0.06,9.89,-9.68,-0.08,-2.16,9.92
-1.86,-9.68,0.09,9.86,-9.69,-0.08,-2.15,9.92
-1.88,-9.69,0.12,9.87,-9.60,-0.08,-2.17,9.85
-1.91,-9.63,0.13,9.82,-9.60,-0.08,-2.15,9.84
-1.93,-9.61,0.12,9.80,-9.62,-0.09,-2.13,9.85
-1.90,-9.62,0.11,9.80,-9.61,-0.09,-2.16,9.85
-1.91,-9.57,0.11,9.76,-9.60,-0.10,-2.15,9.84
-1.89,-9.60,0.13,9.79,-9.59,-0.11,-2.17,9.84
-1.85,-9.61,0.11,9.79,-9.59,-0.12,-2.17,9.83
-1.83,-9.65,0.11,9.82,-9.58,-0.14,-2.18,9.82
-1.86,-9.64,0.13,9.82,-9.62,-0.13,-2.20,9.87
-1.90,-9.63,0.14,9.82,-9.60,-0.13,-2.17,9.85
-1.89,-9.65,0.11,9.84,-9.61,-0.09,-2.19,9.86
-1.89,-9.66,0.12,9.84,-9.62,-0.08,-2.20,9.87
-1.84,-9.64,0.14,9.81,-9.66,-0.10,-2.19,9.91
-1.88,-9.62,0.11,9.81,-9.59,-0.09,-2.15,9.83
-1.92,-9.69,0.26,9.89,-9.63,-0.06,-2.32,9.90
-1.92,-9.69,0.32,9.88,-9.64,-0.10,-2.22,9.89
-1.83,-9.64,0.21,9.81,-9.64,-0.13,-2.20,9.89
-1.89,-9.64,0.17,9.83,-9.57,-0.11,-2.22,9.82
-1.90,-9.63,0.18,9.82,-9.57,-0.07,-2.21,9.82
-1.92,-9.59,0.17,9.78,-9.62,-0.05,-2.24,9.87
-1.86,-9.59,0.17,9.77,-9.60,-0.08,-2.19,9.85
-1.88,-9.63,0.15,9.81,-9.63,-0.11,-2.19,9.88
-1.88,-9.76,0.49,9.95,-9.64,-0.10,-2.16,9.88
-1.81,-9.64,0.19,9.81,-9.67,-0.10,-2.20,9.92
-1.88,-9.66,0.20,9.84,-9.63,-0.12,-2.23,9.89
-1.94,-9.82,0.35,10.01,-9.60,-0.13,-2.27,9.86
-1.88,-9.60,0.29,9.79,-9.60,-0.12,-2.27,9.87
-1.86,-9.58,0.20,9.77,-9.57,-0.10,-2.19,9.82
-1.85,-9.56,0.23,9.74,-9.57,-0.10,-2.26,9.83
-1.89,-9.71,0.39,9.90,-9.59,-0.09,-2.26,9.85
-1.87,-9.58,0.25,9.76,-9.58,-0.10,-2.20,9.83
-1.87,-9.59,0.26,9.77,-9.57,-0.11,-2.26,9.83
-1.90,-9.64,0.18,9.82,-9.59,-0.12,-2.23,9.84
-1.90,-9.62,0.25,9.81,-9.59,-0.12,-2.26,9.86
-1.89,-9.63,0.24,9.82,-9.62,-0.11,-2.25,9.88
-1.94,-9.67,0.22,9.87,-9.63,-0.12,-2.26,9.89
-1.88,-9.62,0.24,9.81,-9.59,-0.12,-2.23,9.84
-1.87,-9.61,0.22,9.79,-9.60,-0.14,-2.28,9.87
-1.86,-9.68,0.24,9.86,-9.58,-0.14,-2.25,9.84
-1.90,-9.70,0.29,9.89,-9.60,-0.12,-2.26,9.86
-1.87,-9.62,0.10,9.80,-9.60,-0.13,-2.25,9.86
-1.87,-9.63,0.22,9.82,-9.58,-0.13,-2.24,9.84
-1.84,-9.65,0.29,9.83,-9.59,-0.14,-2.27,9.85
-1.90,-9.62,0.24,9.81,-9.61,-0.14,-2.25,9.87
-1.89,-9.59,0.22,9.78,-9.58,-0.13,-2.25,9.84
-1.88,-9.60,0.24,9.79,-9.59,-0.15,-2.25,9.85
-1.85,-9.62,0.08,9.80,-9.60,-0.13,-2.27,9.87
-1.88,-9.61,0.20,9.80,-9.59,-0.10,-2.24,9.85
-1.87,-9.58,0.30,9.77,-9.57,-0.12,-2.28,9.84
-1.88,-9.61,0.31,9.79,-9.59,-0.12,-2.28,9.86
-1.88,-9.63,0.21,9.82,-9.60,-0.14,-2.26,9.86
-1.89,-9.60,0.19,9.79,-9.59,-0.13,-2.27,9.86
-1.87,-9.63,0.08,9.81,-9.58,-0.14,-2.28,9.85
-1.89,-9.62,0.25,9.81,-9.57,-0.13,-2.29,9.84
-1.88,-9.62,0.30,9.81,-9.61,-0.14,-2.30,9.88
-1.88,-9.62,0.30,9.81,-9.59,-0.13,-2.30,9.86
-1.87,-9.63,0.28,9.81,-9.60,-0.12,-2.27,9.87
-1.88,-9.65,0.27,9.84,-9.59,-0.13,-2.31,9.86
-1.86,-9.63,0.24,9.81,-9.60,-0.16,-2.31,9.87
-1.89,-9.65,0.26,9.84,-9.63,-0.12,-2.27,9.90
-1.86,-9.69,0.25,9.87,-9.58,-0.16,-2.27,9.85
-1.85,-9.67,0.15,9.85,-9.58,-0.11,-2.26,9.84
-1.85,-9.66,0.25,9.84,-9.58,-0.12,-2.29,9.86
-1.93,-9.67,0.25,9.87,-9.63,-0.14,-2.39,9.93
-1.88,-9.63,0.38,9.82,-9.57,-0.18,-2.19,9.82
-1.86,-9.56,0.28,9.74,-9.54,-0.13,-2.28,9.81
-1.82,-9.60,0.21,9.77,-9.60,-0.14,-2.38,9.89
-1.84,-9.64,0.18,9.81,-9.54,-0.16,-2.20,9.79
-1.80,-9.65,0.13,9.82,-9.60,-0.14,-2.30,9.87
-1.89,-9.62,0.29,9.81,-9.54,-0.18,-2.38,9.84
-1.94,-9.63,0.39,9.83,-9.56,-0.11,-2.31,9.83
-1.92,-9.59,0.29,9.78,-9.56,-0.10,-2.27,9.83
-1.95,-9.57,0.23,9.77,-9.58,-0.08,-2.23,9.84
-1.91,-9.64,0.19,9.83,-9.62,-0.12,-2.27,9.89
-1.87,-9.69,0.25,9.87,-9.63,-0.13,-2.27,9.90
-1.83,-9.66,0.28,9.84,-9.68,-0.11,-2.28,9.94
-1.83,-9.66,0.26,9.84,-9.64,-0.14,-2.28,9.91
-1.85,-9.69,0.26,9.87,-9.63,-0.14,-2.29,9.90
-1.88,-9.62,0.32,9.81,-9.59,-0.14,-2.27,9.86
-1.91,-9.60,0.30,9.80,-9.55,-0.10,-2.28,9.82
-1.91,-9.59,0.28,9.78,-9.57,-0.13,-2.26,9.83
-1.91,-9.58,0.28,9.78,-9.54,-0.12,-2.23,9.80
-1.87,-9.60,0.26,9.78,-9.59,-0.12,-2.28,9.85
-1.84,-9.58,0.23,9.76,-9.58,-0.14,-2.24,9.84
-1.85,-9.61,0.26,9.79,-9.57,-0.13,-2.23,9.83
-1.83,-9.61,0.25,9.78,-9.60,-0.16,-2.25,9.86
-1.86,-9.60,0.26,9.79,-9.58,-0.13,-2.26,9.84
-1.88,-9.64,0.23,9.83,-9.59,-0.15,-2.25,9.86
-1.90,-9.63,0.22,9.81,-9.59,-0.13,-2.27,9.85
-1.92,-9.63,0.23,9.82,-9.61,-0.12,-2.23,9.86
-1.82,-9.64,0.18,9.81,-9.64,-0.11,-2.23,9.89
-1.87,-9.65,0.18,9.83,-9.63,-0.12,-2.25,9.89
-1.90,-9.70,0.31,9.89,-9.62,-0.12,-2.38,9.91
-1.87,-9.68,0.29,9.86,-9.63,-0.13,-2.19,9.88
-1.87,-9.61,0.24,9.79,-9.61,-0.17,-2.22,9.86
-1.91,-9.66,0.25,9.85,-9.62,-0.13,-2.28,9.88
-1.90,-9.62,0.31,9.81,-9.56,-0.15,-2.27,9.83
-1.88,-9.60,0.20,9.79,-9.60,-0.13,-2.27,9.86
-1.85,-9.63,0.15,9.81,-9.59,-0.13,-2.23,9.85
-1.83,-9.63,0.14,9.80,-9.58,-0.12,-2.24,9.84
-1.87,-9.64,0.20,9.82,-9.59,-0.12,-2.24,9.84
-1.88,-9.62,0.21,9.81,-9.61,-0.15,-2.29,9.88
-1.85,-9.61,0.18,9.79,-9.59,-0.13,-2.29,9.86
-1.86,-9.64,0.22,9.82,-9.59,-0.13,-2.28,9.86
-1.91,-9.65,0.23,9.84,-9.58,-0.13,-2.25,9.84
-1.89,-9.61,0.25,9.80,-9.59,-0.11,-2.30,9.87
-1.87,-9.59,0.23,9.77,-9.61,-0.14,-2.23,9.86
-1.86,-9.62,0.23,9.80,-9.57,-0.13,-2.28,9.84
-1.86,-9.62,0.19,9.80,-9.60,-0.16,-2.28,9.87
-1.87,-9.62,0.19,9.80,-9.59,-0.14,-2.24,9.85
-1.87,-9.63,0.18,9.81,-9.62,-0.12,-2.24,9.88
-1.92,-9.65,0.18,9.84,-9.62,-0.11,-2.26,9.88
-1.89,-9.65,0.19,9.84,-9.62,-0.09,-2.24,9.88
-1.89,-9.66,0.18,9.85,-9.62,-0.14,-2.23,9.87
-1.91,-9.62,0.17,9.81,-9.57,-0.12,-2.29,9.84
-1.93,-9.62,0.19,9.81,-9.58,-0.12,-2.25,9.84
-1.88,-9.63,0.19,9.81,-9.59,-0.13,-2.29,9.86
-1.89,-9.62,0.18,9.81,-9.59,-0.13,-2.28,9.86
-1.89,-9.60,0.19,9.79,-9.59,-0.10,-2.27,9.86
-1.89,-9.62,0.19,9.80,-9.58,-0.12,-2.25,9.84
-1.87,-9.60,0.21,9.79,-9.56,-0.12,-2.24,9.82
-1.86,-9.62,0.19,9.80,-9.59,-0.13,-2.21,9.85
-1.86,-9.61,0.15,9.79,-9.59,-0.12,-2.23,9.85
-1.87,-9.69,0.07,9.87,-9.62,-0.15,-2.22,9.87
-1.85,-9.51,-0.04,9.69,-9.55,-0.14,-2.24,9.81
-1.91,-9.67,0.17,9.86,-9.60,-0.12,-2.24,9.86
-1.90,-9.64,0.17,9.83,-9.63,-0.14,-2.28,9.90
-1.91,-9.63,0.15,9.82,-9.61,-0.09,-2.24,9.87
-1.92,-9.64,0.17,9.83,-9.57,-0.11,-2.26,9.83
-1.85,-9.59,-0.05,9.77,-9.60,-0.09,-2.28,9.86
-1.90,-9.65,0.02,9.83,-9.62,-0.11,-2.23,9.87
-1.90,-9.65,0.09,9.84,-9.57,-0.11,-2.24,9.83
-1.88,-9.63,0.20,9.81,-9.60,-0.11,-2.24,9.86
-1.87,-9.64,0.18,9.82,-9.59,-0.10,-2.22,9.85
-1.88,-9.64,0.18,9.82,-9.57,-0.12,-2.25,9.83
-1.90,-9.63,0.15,9.82,-9.62,-0.14,-2.24,9.88
-1.90,-9.66,0.15,9.84,-9.60,-0.11,-2.25,9.86
-1.86,-9.62,0.12,9.80,-9.61,-0.12,-2.22,9.87
-1.86,-9.65,0.13,9.83,-9.60,-0.10,-2.21,9.85
-1.93,-9.66,0.17,9.85,-9.62,-0.10,-2.31,9.89
-1.92,-9.68,0.34,9.87,-9.61,-0.09,-2.25,9.87
-1.89,-9.58,0.25,9.77,-9.56,-0.12,-2.14,9.80
-1.84,-9.51,0.07,9.69,-9.60,-0.12,-2.29,9.87
-1.86,-9.67,0.14,9.85,-9.56,-0.14,-2.12,9.79
-1.84,-9.66,0.11,9.83,-9.61,-0.08,-2.16,9.85
-1.87,-9.73,-0.08,9.91,-9.61,-0.14,-2.33,9.89
-1.98,-9.59,0.22,9.80,-9.54,-0.13,-2.29,9.81
-1.92,-9.62,0.32,9.82,-9.60,-0.08,-2.20,9.85
-1.89,-9.54,0.18,9.72,-9.58,-0.11,-2.12,9.81
-1.92,-9.61,0.28,9.80,-9.60,-0.09,-2.24,9.86
-1.94,-9.64,0.13,9.83,-9.62,-0.10,-2.22,9.87
-1.95,-9.68,0.13,9.87,-9.63,-0.07,-2.17,9.88
-1.88,-9.68,0.13,9.86,-9.66,-0.11,-2.21,9.91
-1.86,-9.66,0.11,9.84,-9.64,-0.13,-2.22,9.90
-1.88,-9.70,0.18,9.88,-9.64,-0.13,-2.19,9.89
-1.91,-9.65,0.21,9.84,-9.63,-0.11,-2.19,9.88
-1.93,-9.66,0.36,9.86,-9.58,-0.11,-2.12,9.81
-1.92,-9.60,0.20,9.79,-9.58,-0.10,-2.15,9.82
-1.87,-9.56,0.22,9.75,-9.59,-0.12,-2.16,9.83
-1.87,-9.59,0.12,9.77,-9.60,-0.08,-2.13,9.83
-1.91,-9.60,0.20,9.79,-9.61,-0.12,-2.15,9.85
-1.88,-9.63,0.14,9.81,-9.62,-0.11,-2.20,9.87
-1.85,-9.74,0.19,9.92,-9.60,-0.13,-2.14,9.84
-1.86,-9.60,0.21,9.78,-9.62,-0.12,-2.19,9.86
-1.87,-9.67,0.48,9.86,-9.62,-0.09,-2.16,9.86
-1.88,-9.67,0.15,9.85,-9.62,-0.09,-2.16,9.86
-1.91,-9.62,0.11,9.81,-9.56,-0.12,-2.21,9.82
-1.86,-9.65,0.05,9.83,-9.64,-0.10,-2.22,9.89
-1.87,-9.65,0.08,9.83,-9.60,-0.09,-2.15,9.84
-1.93,-9.91,0.22,10.10,-9.67,-0.13,-2.27,9.93
-1.86,-9.67,0.04,9.85,-9.66,-0.11,-2.09,9.88
-1.88,-9.63,0.26,9.82,-9.68,-0.11,-2.18,9.92
-1.86,-9.66,0.07,9.84,-9.64,-0.15,-2.14,9.87
-1.90,-9.60,0.10,9.79,-9.59,-0.13,-2.21,9.84
-1.89,-9.65,0.11,9.83,-9.62,-0.11,-2.19,9.87
-1.93,-9.66,0.06,9.85,-9.62,-0.11,-2.17,9.86
-1.88,-9.65,0.11,9.83,-9.62,-0.11,-2.16,9.86
-1.84,-9.63,0.08,9.80,-9.66,-0.12,-2.18,9.90
-1.85,-9.61,0.05,9.79,-9.60,-0.13,-2.16,9.84
-1.87,-9.62,0.21,9.81,-9.62,-0.11,-2.21,9.87
-1.87,-9.64,0.04,9.82,-9.61,-0.09,-2.20,9.86
-1.87,-9.62,0.03,9.80,-9.63,-0.09,-2.19,9.88
-1.88,-9.61,0.12,9.79,-9.62,-0.09,-2.18,9.86
-1.89,-9.64,0.13,9.82,-9.62,-0.09,-2.18,9.87
-1.88,-9.63,0.12,9.81,-9.61,-0.11,-2.17,9.85
-1.89,-9.63,0.09,9.81,-9.60,-0.09,-2.17,9.85
-1.88,-9.63,0.11,9.81,-9.63,-0.10,-2.15,9.87
-1.90,-9.55,0.03,9.73,-9.61,-0.10,-2.18,9.85
-1.90,-9.64,0.12,9.83,-9.63,-0.12,-2.15,9.87
-1.89,-9.65,0.13,9.83,-9.65,-0.11,-2.18,9.89
-1.89,-9.64,0.15,9.83,-9.61,-0.12,-2.16,9.85
-1.89,-9.66,0.14,9.84,-9.62,-0.09,-2.13,9.85
-1.88,-9.63,0.14,9.81,-9.64,-0.10,-2.11,9.87
-1.88,-9.63,0.11,9.81,-9.63,-0.11,-2.16,9.86
-1.86,-9.63,0.14,9.81,-9.64,-0.10,-2.15,9.87
-1.86,-9.64,0.12,9.82,-9.63,-0.08,-2.13,9.86
-1.88,-9.63,0.12,9.81,-9.60,-0.11,-2.14,9.83
-1.87,-9.62,0.12,9.80,-9.61,-0.12,-2.15,9.85
-1.89,-9.63,0.13,9.81,-9.58,-0.09,-2.13,9.82
-1.87,-9.63,0.13,9.81,-9.62,-0.13,-2.15,9.86
-1.88,-9.66,0.10,9.84,-9.64,-0.11,-2.19,9.89
-1.85,-9.68,0.18,9.85,-9.59,-0.12,-2.17,9.83
-1.88,-9.66,0.15,9.84,-9.62,-0.11,-2.11,9.85
-1.89,-9.63,0.12,9.82,-9.62,-0.09,-2.14,9.86
-1.89,-9.64,0.12,9.82,-9.64,-0.11,-2.17,9.88
-1.88,-9.65,0.10,9.83,-9.64,-0.11,-2.17,9.88
-1.91,-9.63,0.09,9.81,-9.64,-0.09,-2.13,9.88
-1.88,-9.66,0.11,9.84,-9.63,-0.11,-2.17,9.87
-1.87,-9.63,0.08,9.81,-9.63,-0.08,-2.15,9.86
-1.87,-9.65,0.08,9.83,-9.61,-0.09,-2.18,9.86
-1.87,-9.65,0.01,9.83,-9.61,-0.08,-2.14,9.84
-1.89,-9.67,0.10,9.85,-9.64,-0.12,-2.14,9.87
-1.88,-9.62,0.06,9.80,-9.62,-0.09,-2.18,9.86
-1.90,-9.63,0.08,9.82,-9.60,-0.10,-2.19,9.85
-1.89,-9.62,0.08,9.80,-9.62,-0.10,-2.16,9.86
-1.91,-9.66,0.09,9.84,-9.64,-0.11,-2.16,9.88
-1.87,-9.63,0.06,9.81,-9.61,-0.10,-2.17,9.85
-1.86,-9.61,0.08,9.79,-9.60,-0.12,-2.11,9.83
-1.84,-9.60,0.05,9.77,-9.62,-0.10,-2.17,9.86
-1.85,-9.63,0.05,9.80,-9.63,-0.11,-2.17,9.87
-1.95,-9.70,0.10,9.89,-9.66,-0.10,-2.26,9.93
-1.92,-9.64,0.26,9.83,-9.63,-0.10,-2.13,9.86
-1.85,-9.54,-0.00,9.71,-9.62,-0.10,-2.20,9.87
-1.83,-9.68,0.17,9.85,-9.66,-0.13,-2.24,9.92
-1.84,-9.73,0.02,9.90,-9.61,-0.10,-2.02,9.82
-1.80,-9.67,0.09,9.83,-9.63,-0.13,-2.17,9.87
-1.93,-9.68,0.17,9.87,-9.60,-0.10,-2.26,9.87
-1.91,-9.64,0.20,9.83,-9.63,-0.07,-2.18,9.87
-1.89,-9.58,0.16,9.76,-9.60,-0.13,-2.13,9.84
-1.87,-9.56,0.09,9.74,-9.56,-0.11,-2.16,9.80
-1.94,-9.60,0.06,9.80,-9.58,-0.09,-2.16,9.82
-1.92,-9.64,0.06,9.83,-9.62,-0.09,-2.16,9.86
-1.88,-9.61,0.08,9.80,-9.65,-0.07,-2.16,9.89
-1.86,-9.68,0.06,9.85,-9.67,-0.11,-2.15,9.90
-1.88,-9.69,0.08,9.87,-9.66,-0.09,-2.12,9.89
-1.89,-9.73,0.13,9.91,-9.63,-0.09,-2.17,9.87
-1.89,-9.53,0.05,9.72,-9.62,-0.08,-2.15,9.85
-1.90,-9.62,0.08,9.80,-9.58,-0.09,-2.12,9.81
-1.90,-9.59,0.06,9.77,-9.63,-0.07,-2.13,9.86
-1.91,-9.59,0.03,9.78,-9.61,-0.06,-2.13,9.85
-1.88,-9.62,0.05,9.80,-9.62,-0.09,-2.14,9.85
-1.87,-9.64,0.05,9.82,-9.62,-0.08,-2.15,9.86
-1.87,-9.65,0.05,9.83,-9.61,-0.12,-2.16,9.85
-1.83,-9.64,0.08,9.81,-9.61,-0.11,-2.14,9.84
-1.85,-9.63,0.06,9.81,-9.59,-0.12,-2.17,9.83
-1.89,-9.63,-0.04,9.81,-9.59,-0.09,-2.14,9.83
-1.92,-9.63,0.06,9.82,-9.59,-0.11,-2.16,9.83
-1.92,-9.64,0.03,9.82,-9.63,-0.09,-2.13,9.86
-1.87,-9.64,0.09,9.82,-9.65,-0.09,-2.12,9.88
-1.87,-9.66,0.05,9.84,-9.65,-0.10,-2.09,9.88
-1.90,-9.68,0.10,9.87,-9.66,-0.07,-2.18,9.90
-1.89,-9.71,0.16,9.89,-9.66,-0.09,-2.13,9.89
-1.87,-9.65,0.11,9.83,-9.66,-0.09,-2.12,9.89
-1.87,-9.61,0.06,9.79,-9.61,-0.08,-2.10,9.84
-1.92,-9.62,0.06,9.80,-9.62,-0.08,-2.17,9.86
-1.91,-9.63,0.06,9.82,-9.61,-0.05,-2.15,9.85
-1.87,-9.63,0.06,9.81,-9.64,-0.05,-2.15,9.88
-1.87,-9.61,0.08,9.79,-9.59,-0.11,-2.11,9.82
-1.87,-9.61,0.07,9.79,-9.61,-0.10,-2.15,9.85
-1.87,-9.63,0.10,9.81,-9.58,-0.10,-2.11,9.81
-1.88,-9.65,0.07,9.83,-9.63,-0.07,-2.13,9.87
-1.92,-9.63,0.06,9.82,-9.63,-0.08,-2.15,9.87
-1.92,-9.63,0.10,9.82,-9.62,-0.07,-2.13,9.86
-1.89,-9.63,0.08,9.82,-9.63,-0.10,-2.16,9.87
-1.91,-9.63,0.10,9.82,-9.63,-0.09,-2.15,9.87
-1.88,-9.62,0.10,9.81,-9.61,-0.09,-2.15,9.84
-1.88,-9.62,0.06,9.80,-9.63,-0.10,-2.16,9.87
-1.87,-9.61,0.07,9.79,-9.61,-0.11,-2.14,9.84
-1.91,-9.67,0.08,9.85,-9.63,-0.10,-2.12,9.86
-1.89,-9.66,0.06,9.84,-9.66,-0.09,-2.14,9.89
-1.91,-9.67,0.07,9.86,-9.65,-0.09,-2.16,9.89
-1.89,-9.66,0.05,9.85,-9.66,-0.10,-2.17,9.90
-1.87,-9.65,0.07,9.83,-9.62,-0.09,-2.16,9.86
-1.90,-9.64,0.07,9.83,-9.62,-0.09,-2.17,9.86
-1.88,-9.63,0.08,9.82,-9.61,-0.09,-2.18,9.86
-1.90,-9.65,0.10,9.84,-9.63,-0.11,-2.17,9.87
-1.88,-9.67,0.10,9.85,-9.62,-0.08,-2.17,9.86
-1.89,-9.67,0.09,9.85,-9.62,-0.11,-2.15,9.86
-1.91,-9.63,0.11,9.81,-9.60,-0.12,-2.16,9.84
-1.90,-9.61,0.08,9.80,-9.60,-0.09,-2.15,9.84
-1.88,-9.60,0.07,9.78,-9.59,-0.09,-2.18,9.83
-1.85,-9.60,0.05,9.78,-9.57,-0.09,-2.15,9.81
-1.88,-9.61,0.05,9.79,-9.59,-0.09,-2.18,9.84
-1.86,-9.65,0.08,9.83,-9.62,-0.10,-2.18,9.86
-1.91,-9.66,0.10,9.85,-9.63,-0.07,-2.21,9.88
-1.90,-9.66,0.14,9.85,-9.63,-0.07,-2.20,9.88
-1.91,-9.67,0.10,9.85,-9.64,-0.08,-2.20,9.89
-1.90,-9.65,0.12,9.84,-9.66,-0.10,-2.20,9.90
-1.90,-9.63,0.12,9.82,-9.63,-0.12,-2.23,9.88
-1.89,-9.63,0.08,9.81,-9.62,-0.13,-2.20,9.87
-1.90,-9.67,0.13,9.86,-9.64,-0.12,-2.22,9.90
-1.87,-9.62,0.10,9.80,-9.62,-0.11,-2.20,9.87
-1.88,-9.63,0.15,9.82,-9.62,-0.11,-2.21,9.87
-1.88,-9.63,0.12,9.82,-9.61,-0.10,-2.22,9.87
-1.90,-9.65,0.15,9.84,-9.61,-0.11,-2.24,9.87
-1.89,-9.63,0.14,9.81,-9.59,-0.11,-2.23,9.85
-1.88,-9.62,0.17,9.80,-9.59,-0.09,-2.20,9.84
-1.90,-9.63,0.17,9.82,-9.60,-0.09,-2.20,9.85
-1.89,-9.62,0.15,9.80,-9.61,-0.10,-2.22,9.86
-1.88,-9.61,0.19,9.80,-9.59,-0.11,-2.22,9.85
-1.89,-9.65,0.24,9.84,-9.62,-0.09,-2.23,9.87
-1.87,-9.57,0.18,9.75,-9.61,-0.11,-2.20,9.86
-1.90,-9.69,0.20,9.88,-9.60,-0.08,-2.21,9.86
-1.97,-9.71,0.23,9.91,-9.63,-0.07,-2.32,9.90
-1.92,-9.67,0.36,9.86,-9.61,-0.10,-2.25,9.87
-1.86,-9.62,0.17,9.80,-9.60,-0.10,-2.15,9.84
-1.84,-9.59,0.11,9.77,-9.65,-0.09,-2.42,9.95
-1.90,-9.73,0.17,9.91,-9.59,-0.12,-2.10,9.82
-1.84,-9.66,0.03,9.83,-9.63,-0.10,-2.16,9.87
-1.97,-9.74,0.40,9.95,-9.56,-0.13,-2.35,9.85
-1.97,-9.62,0.38,9.83,-9.58,-0.14,-2.29,9.85
-1.92,-9.55,0.31,9.75,-9.57,-0.11,-2.19,9.81
-1.86,-9.49,0.08,9.67,-9.58,-0.10,-2.20,9.83
-1.88,-9.59,0.11,9.77,-9.59,-0.09,-2.26,9.86
-1.92,-9.66,0.22,9.85,-9.60,-0.12,-2.24,9.86
-1.89,-9.68,0.32,9.87,-9.64,-0.11,-2.26,9.91
-1.83,-9.67,0.16,9.84,-9.67,-0.10,-2.25,9.93
-1.83,-9.66,0.24,9.84,-9.65,-0.16,-2.23,9.91
-1.90,-9.67,0.30,9.86,-9.60,-0.13,-2.24,9.86
-1.90,-9.60,0.39,9.79,-9.56,-0.10,-2.26,9.83
-1.90,-9.60,0.24,9.79,-9.54,-0.12,-2.25,9.81
-1.92,-9.64,0.40,9.84,-9.58,-0.10,-2.21,9.83
-1.90,-9.61,0.18,9.80,-9.58,-0.10,-2.22,9.84
-1.85,-9.57,0.28,9.76,-9.57,-0.10,-2.23,9.82
-1.85,-9.66,0.20,9.84,-9.60,-0.11,-2.24,9.86
-1.85,-9.62,0.25,9.80,-9.60,-0.12,-2.22,9.85
-1.86,-9.62,0.25,9.80,-9.57,-0.14,-2.27,9.84
-1.87,-9.60,0.24,9.78,-9.59,-0.15,-2.31,9.87
-1.89,-9.66,0.27,9.84,-9.59,-0.14,-2.26,9.85
-1.88,-9.63,0.25,9.82,-9.61,-0.16,-2.26,9.87
-1.89,-9.60,0.19,9.79,-9.61,-0.14,-2.26,9.87
-1.82,-9.63,0.31,9.81,-9.61,-0.11,-2.26,9.88
-1.87,-9.62,0.28,9.81,-9.61,-0.13,-2.27,9.87
-1.90,-9.66,0.35,9.85,-9.60,-0.15,-2.40,9.90
-1.91,-9.70,0.41,9.89,-9.62,-0.11,-2.20,9.87
-1.84,-9.62,0.30,9.80,-9.62,-0.14,-2.25,9.88
-1.88,-9.63,0.34,9.82,-9.60,-0.12,-2.30,9.87
-1.86,-9.56,0.19,9.74,-9.57,-0.12,-2.31,9.85
-1.91,-9.60,0.23,9.79,-9.58,-0.08,-2.28,9.85
-1.89,-9.68,0.15,9.86,-9.62,-0.09,-2.30,9.89
-1.84,-9.63,0.15,9.81,-9.59,-0.13,-2.29,9.86
-1.84,-9.60,0.10,9.78,-9.58,-0.12,-2.29,9.85
-1.85,-9.63,0.25,9.81,-9.56,-0.14,-2.30,9.84
-1.90,-9.68,0.34,9.87,-9.58,-0.14,-2.29,9.85
-1.85,-9.61,0.19,9.79,-9.56,-0.13,-2.27,9.83
-1.89,-9.62,0.31,9.81,-9.54,-0.11,-2.28,9.81
-1.89,-9.61,0.20,9.79,-9.54,-0.14,-2.29,9.82
-1.91,-9.61,0.28,9.81,-9.58,-0.15,-2.28,9.85
-1.88,-9.62,0.25,9.81,-9.59,-0.14,-2.32,9.86
-1.86,-9.61,0.25,9.79,-9.58,-0.17,-2.29,9.85
-1.87,-9.63,0.29,9.82,-9.59,-0.14,-2.28,9.86
-1.85,-9.55,0.25,9.73,-9.61,-0.15,-2.29,9.88
-1.90,-9.68,0.42,9.88,-9.59,-0.14,-2.26,9.85
-1.90,-9.64,0.32,9.83,-9.60,-0.11,-2.28,9.87
-1.88,-9.66,0.35,9.84,-9.61,-0.14,-2.29,9.88
-1.89,-9.57,0.22,9.76,-9.58,-0.13,-2.29,9.85
-1.88,-9.61,0.36,9.80,-9.59,-0.12,-2.33,9.87
-1.88,-9.63,0.24,9.81,-9.58,-0.10,-2.31,9.86
-1.86,-9.58,0.27,9.77,-9.59,-0.13,-2.28,9.86
-1.83,-9.63,0.26,9.80,-9.59,-0.12,-2.32,9.87
-1.84,-9.61,0.29,9.79,-9.56,-0.12,-2.30,9.83
-1.87,-9.66,0.28,9.84,-9.58,-0.12,-2.29,9.85
-1.85,-9.65,0.25,9.83,-9.62,-0.13,-2.32,9.90
-1.88,-9.63,0.27,9.81,-9.59,-0.16,-2.30,9.87
-1.87,-9.63,0.27,9.82,-9.57,-0.15,-2.31,9.84
-1.87,-9.60,0.27,9.78,-9.56,-0.14,-2.33,9.84
-1.88,-9.73,0.36,9.92,-9.57,-0.13,-2.27,9.84
-1.92,-9.63,0.26,9.82,-9.55,-0.13,-2.31,9.82
-1.89,-9.60,0.28,9.79,-9.57,-0.14,-2.34,9.86
-1.90,-9.61,0.18,9.79,-9.57,-0.13,-2.33,9.85
-1.89,-9.59,0.27,9.77,-9.56,-0.12,-2.32,9.84
-1.90,-9.62,0.27,9.81,-9.60,-0.11,-2.34,9.88
-1.88,-9.61,0.25,9.80,-9.57,-0.11,-2.32,9.85
-1.89,-9.63,0.31,9.82,-9.59,-0.14,-2.32,9.86
-1.88,-9.60,0.30,9.79,-9.56,-0.11,-2.34,9.84
-1.88,-9.64,0.32,9.82,-9.56,-0.11,-2.30,9.83
-1.88,-9.64,0.28,9.82,-9.57,-0.13,-2.31,9.84
-1.91,-9.61,0.26,9.80,-9.58,-0.14,-2.31,9.85
-1.88,-9.62,0.26,9.81,-9.58,-0.16,-2.31,9.85
-1.88,-9.64,0.26,9.83,-9.56,-0.15,-2.29,9.84
-1.83,-9.61,0.25,9.79,-9.60,-0.15,-2.28,9.87
-1.89,-9.66,0.28,9.85,-9.59,-0.14,-2.33,9.87
-1.92,-9.67,0.33,9.86,-9.62,-0.14,-2.36,9.91
-1.89,-9.63,0.38,9.82,-9.59,-0.15,-2.21,9.84
-1.90,-9.59,0.33,9.78,-9.55,-0.10,-2.26,9.82
-1.85,-9.58,0.26,9.76,-9.58,-0.13,-2.34,9.87
-1.84,-9.66,0.20,9.84,-9.57,-0.15,-2.28,9.84
-1.82,-9.63,0.22,9.80,-9.61,-0.16,-2.30,9.88
-1.90,-9.62,0.29,9.81,-9.54,-0.17,-2.39,9.83
-1.92,-9.62,0.34,9.82,-9.56,-0.11,-2.34,9.84
-1.92,-9.57,0.31,9.77,-9.57,-0.07,-2.27,9.84
-1.97,-9.57,0.22,9.78,-9.57,-0.08,-2.26,9.84
-1.92,-9.66,0.18,9.85,-9.62,-0.12,-2.28,9.89
-1.90,-9.71,0.24,9.90,-9.66,-0.13,-2.27,9.92
-1.87,-9.72,0.24,9.90,-9.65,-0.13,-2.26,9.92
-1.81,-9.68,0.20,9.85,-9.65,-0.17,-2.29,9.91
-1.84,-9.68,0.23,9.86,-9.62,-0.16,-2.30,9.89
-1.84,-9.64,0.26,9.82,-9.58,-0.15,-2.33,9.86
-1.88,-9.62,0.27,9.80,-9.55,-0.14,-2.30,9.83
-1.90,-9.61,0.25,9.80,-9.56,-0.12,-2.26,9.83
-1.91,-9.58,0.25,9.77,-9.54,-0.15,-2.26,9.80
-1.89,-9.60,0.22,9.78,-9.56,-0.13,-2.27,9.82
-1.85,-9.59,0.22,9.77,-9.56,-0.12,-2.26,9.82
-1.85,-9.60,0.21,9.78,-9.60,-0.13,-2.25,9.86
-1.85,-9.59,0.21,9.77,-9.59,-0.15,-2.26,9.85
-1.87,-9.63,0.22,9.81,-9.56,-0.13,-2.27,9.83
-1.88,-9.66,0.21,9.85,-9.56,-0.16,-2.26,9.82
-1.91,-9.64,0.23,9.83,-9.62,-0.13,-2.28,9.88
-1.86,-9.57,-0.04,9.75,-9.57,-0.12,-2.28,9.84
-1.85,-9.68,0.15,9.86,-9.61,-0.13,-2.24,9.87
-1.90,-9.66,0.17,9.84,-9.64,-0.12,-2.30,9.91
-1.89,-9.71,0.23,9.89,-9.61,-0.13,-2.37,9.90
-1.87,-9.65,0.26,9.83,-9.64,-0.14,-2.23,9.89
-1.87,-9.60,0.38,9.79,-9.60,-0.14,-2.26,9.86
-1.89,-9.65,0.23,9.84,-9.62,-0.15,-2.29,9.89
-1.92,-9.64,0.26,9.83,-9.58,-0.13,-2.25,9.84
-1.89,-9.62,0.22,9.81,-9.61,-0.12,-2.28,9.87
-1.88,-9.63,0.15,9.81,-9.60,-0.13,-2.26,9.86
-1.87,-9.63,0.13,9.81,-9.61,-0.15,-2.26,9.87
-1.89,-9.64,0.12,9.82,-9.61,-0.14,-2.29,9.88
-1.86,-9.61,0.15,9.79,-9.58,-0.15,-2.25,9.85
-1.86,-9.67,0.11,9.85,-9.59,-0.13,-2.29,9.86
-1.90,-9.61,0.18,9.80,-9.55,-0.14,-2.27,9.82
-1.89,-9.65,0.20,9.83,-9.56,-0.13,-2.29,9.83
-1.88,-9.64,0.23,9.82,-9.57,-0.12,-2.25,9.83
-1.89,-9.65,0.18,9.83,-9.60,-0.11,-2.31,9.88
-1.87,-9.64,0.18,9.82,-9.61,-0.12,-2.27,9.87
-1.80,-9.47,0.06,9.64,-9.56,-0.13,-2.25,9.82
-1.87,-9.65,0.09,9.83,-9.61,-0.13,-2.26,9.87
-1.89,-9.67,0.02,9.85,-9.63,-0.15,-2.25,9.89
-1.90,-9.63,0.14,9.82,-9.58,-0.15,-2.24,9.84
-1.93,-9.65,0.17,9.85,-9.58,-0.14,-2.27,9.85
-1.89,-9.65,0.18,9.83,-9.59,-0.11,-2.26,9.85
-1.90,-9.61,0.21,9.80,-9.59,-0.11,-2.24,9.85
-1.89,-9.63,0.18,9.82,-9.62,-0.13,-2.28,9.89
-1.90,-9.63,0.21,9.82,-9.60,-0.12,-2.23,9.86
-1.89,-9.66,0.24,9.84,-9.60,-0.13,-2.26,9.87
-1.88,-9.63,0.15,9.81,-9.60,-0.14,-2.28,9.86
-1.85,-9.62,0.20,9.80,-9.57,-0.13,-2.26,9.84
-1.87,-9.59,0.18,9.77,-9.57,-0.11,-2.27,9.83
-1.89,-9.58,0.21,9.77,-9.58,-0.12,-2.23,9.84
-1.86,-9.55,0.13,9.73,-9.59,-0.14,-2.25,9.85
-1.88,-9.58,-0.09,9.77,-9.59,-0.14,-2.23,9.85
-1.88,-9.69,0.06,9.87,-9.62,-0.11,-2.23,9.87
-1.89,-9.60,0.10,9.79,-9.63,-0.11,-2.23,9.88
-1.89,-9.62,0.20,9.80,-9.59,-0.13,-2.22,9.84
-1.90,-9.63,0.26,9.82,-9.63,-0.09,-2.24,9.88
-1.89,-9.64,0.22,9.82,-9.59,-0.11,-2.23,9.84
-1.87,-9.61,0.16,9.80,-9.58,-0.11,-2.26,9.84
-1.90,-9.65,0.16,9.83,-9.61,-0.13,-2.25,9.87
-1.86,-9.66,0.17,9.83,-9.61,-0.11,-2.23,9.87
-1.88,-9.68,0.18,9.86,-9.61,-0.11,-2.28,9.88
-1.90,-9.63,0.14,9.81,-9.59,-0.10,-2.23,9.85
-1.89,-9.62,0.18,9.81,-9.62,-0.11,-2.23,9.87
-1.88,-9.60,0.17,9.78,-9.60,-0.12,-2.29,9.87
-1.89,-9.65,0.17,9.83,-9.59,-0.13,-2.25,9.85
-1.87,-9.62,0.16,9.80,-9.59,-0.11,-2.25,9.85
-1.84,-9.53,-0.14,9.71,-9.58,-0.12,-2.21,9.84
-1.82,-9.66,0.37,9.84,-9.63,-0.11,-2.24,9.89
-1.92,-9.71,0.23,9.90,-9.63,-0.12,-2.28,9.90
-1.97,-9.69,0.41,9.90,-9.66,-0.11,-2.31,9.93
-1.90,-9.65,0.29,9.84,-9.60,-0.15,-2.13,9.83
-1.86,-9.51,0.05,9.69,-9.59,-0.15,-2.31,9.87
-1.85,-9.70,0.12,9.88,-9.58,-0.11,-2.18,9.83
-1.85,-9.65,0.07,9.83,-9.60,-0.14,-2.11,9.83
-1.85,-9.69,0.17,9.86,-9.65,-0.12,-2.30,9.92
-1.94,-9.68,0.31,9.88,-9.59,-0.14,-2.30,9.87
-1.90,-9.61,0.27,9.80,-9.61,-0.10,-2.18,9.85
-1.88,-9.56,0.15,9.75,-9.58,-0.11,-2.16,9.82
-1.93,-9.59,0.09,9.78,-9.59,-0.07,-2.22,9.85
-1.90,-9.50,-0.07,9.68,-9.61,-0.08,-2.24,9.87
-1.93,-9.53,0.29,9.73,-9.63,-0.11,-2.18,9.87
-1.91,-9.70,0.17,9.89,-9.67,-0.11,-2.18,9.91
-1.83,-9.70,0.16,9.87,-9.67,-0.10,-2.20,9.92
-1.87,-9.70,0.15,9.88,-9.68,-0.13,-2.20,9.93
-1.85,-9.67,0.22,9.85,-9.62,-0.12,-2.15,9.86
-1.86,-9.61,0.14,9.79,-9.60,-0.10,-2.18,9.84
-1.90,-9.63,0.16,9.81,-9.58,-0.11,-2.17,9.82
-1.91,-9.61,0.15,9.80,-9.61,-0.11,-2.16,9.85
-1.90,-9.60,0.16,9.79,-9.59,-0.10,-2.16,9.83
-1.88,-9.59,0.16,9.78,-9.59,-0.11,-2.13,9.82
-1.87,-9.59,0.14,9.78,-9.62,-0.14,-2.16,9.86
-1.86,-9.64,0.25,9.82,-9.60,-0.13,-2.16,9.84
-1.84,-9.66,0.01,9.83,-9.61,-0.11,-2.18,9.86
-1.87,-9.68,0.14,9.86,-9.61,-0.13,-2.18,9.85
-1.87,-9.63,0.14,9.81,-9.63,-0.13,-2.18,9.88
-1.88,-9.62,-0.18,9.81,-9.65,-0.11,-2.19,9.90
-1.88,-9.66,0.03,9.85,-9.61,-0.12,-2.15,9.85
-1.87,-9.63,0.08,9.82,-9.63,-0.12,-2.11,9.86
-1.90,-9.65,0.14,9.83,-9.65,-0.08,-2.23,9.91
-1.90,-9.68,0.17,9.86,-9.63,-0.11,-2.23,9.89
-1.86,-9.69,0.20,9.87,-9.68,-0.11,-2.11,9.90
-1.87,-9.66,0.19,9.84,-9.64,-0.13,-2.18,9.88
-1.87,-9.62,0.12,9.80,-9.62,-0.12,-2.20,9.87
-1.90,-9.63,0.11,9.81,-9.60,-0.11,-2.19,9.85
-1.90,-9.61,0.08,9.80,-9.60,-0.09,-2.16,9.84
-1.90,-9.59,0.03,9.78,-9.60,-0.08,-2.16,9.84
-1.84,-9.62,0.11,9.80,-9.61,-0.12,-2.16,9.86
-1.87,-9.62,0.10,9.80,-9.63,-0.14,-2.14,9.86
-1.86,-9.65,0.08,9.82,-9.60,-0.11,-2.17,9.85
-1.85,-9.66,0.10,9.84,-9.63,-0.11,-2.18,9.87
-1.86,-9.66,0.08,9.84,-9.62,-0.11,-2.18,9.87
-1.90,-9.63,0.09,9.82,-9.61,-0.11,-2.18,9.85
-1.89,-9.62,0.13,9.80,-9.63,-0.12,-2.17,9.87
-1.89,-9.61,0.13,9.79,-9.64,-0.11,-2.17,9.88
-1.88,-9.60,0.13,9.79,-9.61,-0.10,-2.16,9.85
-1.87,-9.63,0.13,9.81,-9.61,-0.14,-2.16,9.85
-1.88,-9.65,0.11,9.83,-9.63,-0.12,-2.20,9.88
-1.88,-9.64,0.10,9.82,-9.62,-0.11,-2.16,9.86
-1.92,-9.66,0.11,9.85,-9.63,-0.14,-2.14,9.86
-1.89,-9.60,0.12,9.78,-9.64,-0.08,-2.19,9.89
-1.91,-9.65,0.09,9.83,-9.62,-0.11,-2.16,9.86
-1.87,-9.63,-0.09,9.81,-9.63,-0.08,-2.16,9.87
-1.82,-9.50,-0.08,9.67,-9.58,-0.09,-2.19,9.83
-1.89,-9.66,0.11,9.84,-9.61,-0.11,-2.18,9.85
-1.87,-9.65,0.16,9.83,-9.65,-0.10,-2.19,9.90
-1.87,-9.65,0.12,9.83,-9.65,-0.10,-2.14,9.88
-1.88,-9.62,0.12,9.80,-9.61,-0.09,-2.13,9.85
-1.86,-9.59,0.11,9.77,-9.60,-0.10,-2.18,9.85
-1.88,-9.62,0.10,9.80,-9.60,-0.10,-2.16,9.84
-1.87,-9.62,0.10,9.80,-9.63,-0.11,-2.13,9.87
-1.87,-9.61,0.10,9.79,-9.62,-0.11,-2.13,9.86
-1.90,-9.62,0.11,9.81,-9.62,-0.11,-2.14,9.85
-1.90,-9.63,0.12,9.82,-9.65,-0.11,-2.15,9.89
-1.88,-9.64,0.12,9.82,-9.64,-0.11,-2.17,9.89
-1.89,-9.64,0.11,9.83,-9.63,-0.11,-2.15,9.86
-1.89,-9.63,0.11,9.82,-9.62,-0.09,-2.18,9.86
-1.87,-9.66,0.09,9.84,-9.64,-0.12,-2.15,9.87
-1.86,-9.61,0.09,9.79,-9.60,-0.09,-2.19,9.85
-1.87,-9.65,0.07,9.83,-9.63,-0.08,-2.18,9.88
-1.87,-9.63,0.08,9.81,-9.61,-0.07,-2.15,9.84
-1.89,-9.67,0.08,9.85,-9.62,-0.08,-2.16,9.86
-1.91,-9.64,0.10,9.83,-9.62,-0.10,-2.15,9.86
-1.90,-9.65,0.13,9.83,-9.61,-0.10,-2.16,9.85
-1.87,-9.61,0.12,9.79,-9.61,-0.11,-2.15,9.85
-1.87,-9.61,0.11,9.79,-9.62,-0.10,-2.13,9.85
-1.89,-9.62,0.08,9.80,-9.62,-0.10,-2.16,9.86
-1.87,-9.62,0.08,9.80,-9.63,-0.10,-2.16,9.87
-1.87,-9.64,0.09,9.82,-9.62,-0.08,-2.16,9.86
-1.83,-9.62,0.05,9.79,-9.64,-0.10,-2.15,9.88
-1.84,-9.62,0.08,9.80,-9.63,-0.10,-2.14,9.87
-1.95,-9.70,0.11,9.89,-9.64,-0.06,-2.25,9.90
-1.91,-9.65,0.30,9.85,-9.61,-0.08,-2.12,9.84
-1.89,-9.60,0.17,9.79,-9.58,-0.08,-2.07,9.80
-1.80,-9.57,-0.03,9.74,-9.65,-0.08,-2.28,9.91
-1.83,-9.73,0.04,9.90,-9.57,-0.11,-2.01,9.78
-1.82,-9.61,-0.13,9.78,-9.65,-0.08,-2.17,9.89
-1.93,-9.68,0.10,9.87,-9.61,-0.08,-2.26,9.87
-2.00,-9.72,0.53,9.94,-9.61,-0.08,-2.21,9.86
-1.92,-9.58,0.21,9.77,-9.62,-0.08,-2.14,9.86
-1.89,-9.55,0.06,9.73,-9.57,-0.09,-2.13,9.81
-1.90,-9.59,0.02,9.78,-9.60,-0.09,-2.20,9.85
-1.92,-9.67,0.08,9.86,-9.64,-0.08,-2.15,9.88
-1.91,-9.65,0.09,9.84,-9.65,-0.08,-2.17,9.89
-1.84,-9.66,0.05,9.84,-9.66,-0.11,-2.13,9.89
-1.87,-9.69,0.09,9.87,-9.67,-0.14,-2.17,9.91
-1.90,-9.67,0.11,9.85,-9.68,-0.10,-2.13,9.92
-1.90,-9.68,0.13,9.86,-9.63,-0.07,-2.13,9.87
-1.92,-9.63,0.10,9.82,-9.63,-0.08,-2.09,9.85
-1.88,-9.64,0.07,9.82,-9.63,-0.07,-2.12,9.86
-1.89,-9.61,0.08,9.80,-9.58,-0.10,-2.13,9.82
-1.88,-9.60,0.08,9.78,-9.62,-0.09,-2.10,9.85
-1.85,-9.62,0.08,9.79,-9.61,-0.12,-2.12,9.84
-1.85,-9.62,0.08,9.79,-9.63,-0.10,-2.12,9.86
-1.85,-9.63,0.11,9.81,-9.60,-0.10,-2.14,9.83
-1.86,-9.62,0.09,9.80,-9.62,-0.11,-2.13,9.85
-1.90,-9.62,0.06,9.80,-9.60,-0.10,-2.12,9.83
-1.89,-9.62,0.06,9.80,-9.60,-0.09,-2.15,9.83
-1.88,-9.62,0.03,9.80,-9.64,-0.08,-2.15,9.87
-1.90,-9.63,0.06,9.81,-9.63,-0.07,-2.13,9.87
-1.85,-9.61,0.07,9.79,-9.63,-0.08,-2.11,9.86
-1.89,-9.66,0.02,9.84,-9.63,-0.07,-2.20,9.88
-1.91,-9.68,0.15,9.87,-9.65,-0.10,-2.15,9.89
-1.85,-9.65,0.12,9.83,-9.65,-0.09,-2.11,9.88
-1.89,-9.64,0.08,9.83,-9.62,-0.11,-2.13,9.85
-1.92,-9.64,0.03,9.82,-9.61,-0.09,-2.13,9.84
-1.92,-9.64,0.05,9.83,-9.63,-0.08,-2.12,9.86
-1.88,-9.64,0.06,9.83,-9.63,-0.05,-2.16,9.87
-1.85,-9.64,0.07,9.82,-9.64,-0.09,-2.13,9.87
-1.85,-9.66,0.04,9.83,-9.65,-0.10,-2.13,9.88
-1.83,-9.69,0.04,9.86,-9.67,-0.11,-2.10,9.90
-1.86,-9.71,0.08,9.89,-9.65,-0.11,-2.12,9.89
-1.88,-9.68,0.07,9.86,-9.65,-0.09,-2.15,9.88
-1.91,-9.68,0.07,9.87,-9.62,-0.08,-2.18,9.87
-1.88,-9.63,0.09,9.81,-9.61,-0.10,-2.19,9.85
-1.89,-9.63,0.11,9.82,-9.61,-0.13,-2.18,9.86
-1.84,-9.60,0.11,9.78,-9.58,-0.14,-2.16,9.83
-1.85,-9.61,0.12,9.79,-9.61,-0.09,-2.15,9.85
-1.82,-9.61,0.10,9.78,-9.60,-0.13,-2.16,9.84
-1.85,-9.61,0.10,9.79,-9.59,-0.08,-2.19,9.84
-1.86,-9.62,0.07,9.80,-9.61,-0.09,-2.18,9.85
-1.88,-9.62,0.08,9.80,-9.63,-0.13,-2.17,9.87
-1.88,-9.63,0.10,9.81,-9.64,-0.09,-2.18,9.88
-1.90,-9.65,0.13,9.84,-9.63,-0.09,-2.19,9.88
-1.87,-9.67,0.13,9.85,-9.57,-0.13,-2.18,9.82
-1.91,-9.66,0.15,9.85,-9.62,-0.08,-2.18,9.87
-1.87,-9.60,0.16,9.78,-9.64,-0.10,-2.17,9.88
-1.89,-9.62,0.15,9.80,-9.63,-0.11,-2.18,9.87
-1.86,-9.61,0.13,9.79,-9.60,-0.14,-2.15,9.84
-1.83,-9.62,0.17,9.80,-9.62,-0.09,-2.16,9.86
-1.84,-9.61,0.15,9.79,-9.62,-0.11,-2.16,9.86
-1.86,-9.65,0.14,9.83,-9.65,-0.07,-2.15,9.89
-1.90,-9.64,0.13,9.83,-9.62,-0.10,-2.14,9.85
-1.88,-9.64,0.15,9.82,-9.62,-0.08,-2.17,9.86
-1.91,-9.63,0.16,9.82,-9.59,-0.06,-2.16,9.83
-1.87,-9.62,0.16,9.81,-9.60,-0.07,-2.17,9.84
-1.89,-9.60,0.19,9.79,-9.61,-0.06,-2.14,9.85
-1.88,-9.62,0.18,9.80,-9.58,-0.07,-2.20,9.82
-1.89,-9.62,0.20,9.80,-9.58,-0.08,-2.21,9.83
-1.89,-9.59,0.18,9.77,-9.59,-0.08,-2.22,9.84
-1.88,-9.61,0.16,9.79,-9.61,-0.07,-2.19,9.85
-1.90,-9.62,0.12,9.81,-9.64,-0.08,-2.19,9.89
-1.90,-9.64,0.13,9.82,-9.64,-0.07,-2.19,9.88
-1.93,-9.66,0.11,9.85,-9.63,-0.07,-2.19,9.87
-1.89,-9.66,0.12,9.84,-9.62,-0.08,-2.18,9.86
-1.91,-9.64,0.15,9.83,-9.65,-0.05,-2.17,9.89
-1.93,-9.66,0.20,9.85,-9.64,-0.10,-2.18,9.88
-1.89,-9.62,0.22,9.81,-9.61,-0.08,-2.17,9.85
-1.89,-9.62,0.24,9.80,-9.59,-0.08,-2.19,9.84
-1.90,-9.60,0.19,9.78,-9.58,-0.09,-2.19,9.83
-1.90,-9.61,0.17,9.80,-9.59,-0.11,-2.18,9.84
-1.91,-9.60,0.17,9.79,-9.60,-0.09,-2.19,9.85
-1.86,-9.62,0.13,9.80,-9.59,-0.09,-2.18,9.84
-1.86,-9.59,0.11,9.77,-9.61,-0.09,-2.16,9.85
-1.87,-9.64,0.13,9.82,-9.63,-0.07,-2.20,9.88
-1.98,-9.70,0.33,9.90,-9.67,-0.08,-2.24,9.92
-1.90,-9.64,0.28,9.83,-9.62,-0.09,-2.06,9.83
-1.90,-9.51,0.16,9.70,-9.61,-0.12,-2.20,9.86
-1.85,-9.64,0.09,9.82,-9.65,-0.10,-2.04,9.86
-1.90,-9.71,0.04,9.90,-9.57,-0.10,-1.95,9.77
-1.87,-9.66,0.11,9.84,-9.64,-0.10,-2.11,9.87
-1.93,-9.69,0.17,9.89,-9.57,-0.14,-2.09,9.80
-1.90,-9.61,0.15,9.80,-9.62,-0.09,-2.07,9.85
-1.88,-9.58,0.07,9.77,-9.67,-0.07,-2.22,9.93
-1.90,-9.68,0.06,9.86,-9.69,-0.07,-2.26,9.95
-1.97,-9.75,0.17,9.95,-9.67,-0.05,-2.32,9.94
-1.89,-9.69,0.22,9.88,-9.62,-0.11,-2.21,9.87
-1.87,-9.62,0.26,9.81,-9.66,-0.08,-2.16,9.90
-1.83,-9.64,0.25,9.81,-9.63,-0.09,-2.10,9.85
-1.84,-9.69,0.26,9.86,-9.63,-0.07,-2.09,9.85
-1.87,-9.70,0.23,9.88,-9.63,-0.08,-2.09,9.85
-1.85,-9.65,0.22,9.83,-9.63,-0.07,-2.16,9.87
-1.85,-9.64,0.23,9.82,-9.58,-0.07,-2.16,9.82
-1.92,-9.66,0.37,9.85,-9.58,-0.06,-2.12,9.81
-1.87,-9.56,0.12,9.74,-9.58,-0.08,-2.21,9.83
-1.83,-9.55,0.17,9.73,-9.55,-0.10,-2.15,9.79
-1.78,-9.53,0.19,9.70,-9.53,-0.06,-2.19,9.78
-1.73,-9.52,0.26,9.68,-9.48,-0.09,-2.20,9.73
-1.72,-9.52,0.29,9.68,-9.48,-0.11,-2.15,9.72
-1.78,-9.56,0.25,9.73,-9.54,-0.15,-2.16,9.78
-1.78,-9.58,0.23,9.75,-9.58,-0.10,-2.15,9.82
-1.86,-9.62,0.18,9.80,-9.59,-0.07,-2.12,9.82
-1.84,-9.67,0.12,9.85,-9.66,-0.06,-2.09,9.88
-1.87,-9.70,0.13,9.88,-9.66,-0.04,-1.98,9.86
-1.94,-9.72,0.16,9.92,-9.70,-0.06,-2.11,9.92
-1.94,-9.74,0.18,9.93,-9.73,-0.07,-2.08,9.95
-1.93,-9.74,0.18,9.93,-9.75,-0.06,-2.10,9.98
-1.92,-9.70,0.20,9.89,-9.69,-0.09,-2.13,9.93
-1.89,-9.64,0.17,9.82,-9.65,-0.06,-2.10,9.87
-1.90,-9.59,0.15,9.78,-9.57,-0.04,-2.02,9.78
-1.91,-9.60,0.12,9.79,-9.60,-0.04,-2.08,9.82
-1.83,-9.60,0.14,9.78,-9.59,-0.05,-2.08,9.82
-1.81,-9.60,0.11,9.77,-9.63,-0.05,-2.08,9.85
-1.83,-9.62,0.08,9.79,-9.64,-0.08,-2.08,9.86
-1.81,-9.67,0.06,9.84,-9.64,-0.06,-2.09,9.86
-1.84,-9.67,0.09,9.85,-9.69,-0.05,-2.11,9.92
-1.85,-9.70,0.09,9.88,-9.66,-0.04,-2.08,9.89
-1.84,-9.67,0.04,9.84,-9.67,-0.06,-2.09,9.90
-1.80,-9.66,0.05,9.82,-9.66,0.02,-2.14,9.89
-1.82,-9.66,0.10,9.84,-9.66,-0.02,-2.16,9.90
-1.85,-9.65,0.17,9.83,-9.64,-0.03,-2.13,9.87
-1.86,-9.64,0.16,9.82,-9.62,-0.03,-2.14,9.86
-1.87,-9.60,0.18,9.78,-9.60,-0.09,-2.11,9.83
-1.86,-9.66,0.17,9.84,-9.62,-0.07,-2.06,9.84
-1.86,-9.64,0.16,9.82,-9.63,-0.07,-2.05,9.85
-1.82,-9.66,0.17,9.83,-9.65,-0.07,-2.09,9.88
-1.80,-9.67,0.18,9.84,-9.63,-0.07,-2.06,9.85
-1.86,-9.66,0.18,9.84,-9.66,-0.06,-2.10,9.89
-1.85,-9.63,0.20,9.81,-9.65,-0.04,-2.09,9.87
-1.84,-9.66,0.17,9.83,-9.64,-0.04,-2.07,9.86
-1.85,-9.62,0.17,9.80,-9.60,-0.03,-2.07,9.82
-1.84,-9.60,0.17,9.77,-9.61,-0.03,-2.07,9.83
-1.82,-9.59,0.14,9.76,-9.60,-0.01,-2.10,9.83
-1.82,-9.60,0.14,9.77,-9.62,-0.01,-2.07,9.84
-1.80,-9.59,0.15,9.76,-9.61,-0.05,-2.07,9.83
-1.79,-9.61,0.14,9.78,-9.61,-0.06,-2.11,9.84
-1.82,-9.62,0.16,9.79,-9.60,-0.03,-2.07,9.82
-1.83,-9.63,0.17,9.81,-9.60,-0.04,-2.00,9.81
-1.81,-9.63,0.18,9.80,-9.60,-0.06,-2.09,9.83
-1.85,-9.63,0.18,9.81,-9.64,-0.03,-2.11,9.86
-1.83,-9.61,0.15,9.78,-9.64,-0.03,-2.04,9.85
-1.86,-9.65,0.15,9.83,-9.64,-0.04,-2.09,9.86
-1.88,-9.66,0.14,9.84,-9.63,-0.02,-2.08,9.85
-1.89,-9.68,0.08,9.86,-9.66,-0.03,-2.06,9.88
-1.89,-9.67,0.11,9.86,-9.67,-0.02,-2.02,9.88
-1.85,-9.68,0.10,9.85,-9.66,-0.03,-2.03,9.87
-1.86,-9.66,0.08,9.84,-9.64,-0.05,-2.06,9.86
-1.85,-9.65,0.07,9.83,-9.62,-0.05,-2.03,9.84
-1.82,-9.59,-0.18,9.76,-9.63,-0.06,-2.04,9.84
-1.87,-9.64,0.09,9.82,-9.62,-0.05,-2.06,9.83
-1.86,-9.61,0.09,9.79,-9.60,-0.05,-2.06,9.82
-1.87,-9.67,0.19,9.85,-9.60,-0.03,-2.06,9.82
-1.85,-9.63,0.05,9.81,-9.60,-0.04,-2.12,9.83
-1.85,-9.63,0.02,9.81,-9.63,-0.01,-2.08,9.85
-1.82,-9.60,0.07,9.77,-9.63,-0.03,-2.08,9.85
-1.77,-9.60,0.07,9.77,-9.64,-0.03,-2.08,9.86
-1.85,-9.66,0.10,9.84,-9.65,-0.04,-2.12,9.88
-1.86,-9.69,0.21,9.87,-9.65,-0.04,-2.09,9.87
-1.87,-9.63,0.20,9.82,-9.61,-0.04,-1.97,9.81
-1.85,-9.56,0.37,9.74,-9.66,-0.01,-2.23,9.91
-1.81,-9.75,0.03,9.91,-9.68,-0.06,-2.06,9.90
-1.85,-9.68,-0.03,9.86,-9.64,-0.04,-2.06,9.86
-1.87,-9.67,-0.01,9.85,-9.68,-0.03,-2.13,9.91
-1.90,-9.68,0.09,9.86,-9.62,-0.04,-2.12,9.85
-1.87,-9.63,0.15,9.81,-9.67,-0.03,-2.12,9.90
-1.87,-9.60,0.13,9.78,-9.62,-0.04,-2.06,9.84
-1.89,-9.64,0.07,9.82,-9.63,-0.06,-2.11,9.86
-1.91,-9.64,0.06,9.82,-9.64,-0.02,-2.07,9.86
-1.90,-9.66,0.06,9.84,-9.65,-0.04,-2.06,9.87
-1.84,-9.63,0.05,9.80,-9.66,-0.04,-2.07,9.88
-1.83,-9.66,0.07,9.83,-9.62,-0.07,-1.97,9.82
-1.82,-9.65,0.10,9.82,-9.66,-0.08,-2.04,9.87
-1.85,-9.67,0.09,9.85,-9.66,-0.04,-2.02,9.87
-1.87,-9.67,0.12,9.85,-9.65,-0.04,-2.05,9.86
-1.88,-9.68,0.11,9.86,-9.65,-0.04,-2.03,9.86
-1.88,-9.63,0.03,9.81,-9.63,-0.04,-2.04,9.85
-1.86,-9.62,0.06,9.80,-9.64,-0.05,-2.02,9.85
-1.83,-9.60,0.06,9.78,-9.62,-0.04,-2.03,9.84
-1.81,-9.59,0.09,9.76,-9.63,-0.06,-2.04,9.84
-1.82,-9.59,0.11,9.76,-9.61,-0.04,-2.08,9.83
-1.82,-9.62,0.13,9.79,-9.63,-0.08,-2.08,9.85
-1.84,-9.64,0.14,9.82,-9.62,-0.06,-2.06,9.84
-1.89,-9.66,0.09,9.84,-9.64,-0.05,-2.08,9.86
-1.87,-9.63,0.10,9.81,-9.63,-0.07,-2.04,9.85
-1.83,-9.63,0.06,9.80,-9.69,-0.07,-2.03,9.90
-1.88,-9.61,0.05,9.79,-9.63,-0.01,-2.02,9.84
-1.85,-9.63,0.08,9.80,-9.66,-0.01,-2.08,9.88
-1.86,-9.63,0.10,9.81,-9.64,-0.04,-2.07,9.86
-1.87,-9.64,0.14,9.82,-9.67,-0.04,-2.07,9.89
-1.86,-9.65,0.10,9.83,-9.61,-0.06,-2.06,9.83
-1.91,-9.64,0.09,9.82,-9.63,-0.04,-2.06,9.85
-1.91,-9.69,0.07,9.87,-9.60,-0.02,-2.00,9.81
-1.88,-9.60,0.00,9.78,-9.65,-0.03,-2.08,9.87
-1.83,-9.63,0.04,9.80,-9.64,-0.00,-2.05,9.86
-1.86,-9.65,0.03,9.82,-9.64,-0.05,-2.02,9.85
-1.87,-9.67,0.04,9.85,-9.67,-0.06,-2.03,9.88
-1.86,-9.66,0.03,9.84,-9.66,-0.05,-2.07,9.88
-1.86,-9.66,0.01,9.83,-9.62,-0.05,-2.07,9.84
-1.85,-9.66,0.06,9.83,-9.63,-0.04,-2.06,9.85
-1.86,-9.61,0.06,9.79,-9.65,-0.06,-2.03,9.86
-1.85,-9.61,0.04,9.79,-9.63,-0.06,-2.07,9.85
-1.86,-9.62,0.05,9.80,-9.63,-0.06,-2.08,9.85
-1.87,-9.65,0.07,9.83,-9.61,-0.06,-2.03,9.83
-1.86,-9.62,0.05,9.80,-9.60,-0.08,-2.06,9.82
-1.84,-9.64,0.04,9.81,-9.64,-0.06,-2.10,9.86
-1.88,-9.65,0.03,9.83,-9.62,-0.04,-2.06,9.84
-1.89,-9.64,0.03,9.82,-9.67,-0.05,-2.06,9.88
-1.86,-9.63,0.03,9.81,-9.66,-0.03,-2.10,9.89
-1.87,-9.66,0.05,9.84,-9.63,-0.02,-2.09,9.86
-1.88,-9.64,0.08,9.83,-9.65,-0.04,-2.07,9.87
-1.88,-9.62,0.09,9.80,-9.63,0.00,-2.06,9.85
-1.89,-9.63,0.09,9.82,-9.64,-0.03,-2.10,9.86
-1.85,-9.65,0.06,9.82,-9.65,-0.02,-2.07,9.87
-1.84,-9.65,0.04,9.82,-9.65,-0.03,-2.08,9.87
-1.89,-9.61,0.07,9.79,-9.61,-0.03,-2.08,9.83
-1.87,-9.62,0.07,9.80,-9.61,-0.02,-2.08,9.84
-1.88,-9.63,0.13,9.81,-9.64,-0.05,-2.07,9.86
-1.88,-9.61,0.08,9.79,-9.64,-0.04,-2.09,9.87
-1.85,-9.63,0.08,9.81,-9.66,-0.05,-2.12,9.88
-1.87,-9.63,0.05,9.81,-9.66,-0.02,-2.11,9.89
-1.86,-9.65,0.05,9.83,-9.65,-0.02,-2.11,9.88
-1.86,-9.65,0.01,9.83,-9.62,-0.03,-2.07,9.84
-1.86,-9.64,0.03,9.82,-9.63,-0.02,-2.06,9.84
-1.90,-9.64,0.07,9.83,-9.64,-0.02,-2.11,9.87
-1.90,-9.66,0.08,9.84,-9.68,-0.05,-2.12,9.91
-1.88,-9.65,0.06,9.83,-9.67,-0.04,-2.11,9.90
-1.85,-9.63,0.06,9.80,-9.65,-0.02,-2.10,9.87
-1.89,-9.63,0.09,9.81,-9.66,-0.04,-2.10,9.89
-1.84,-9.65,0.08,9.83,-9.66,-0.06,-2.10,9.89
-1.86,-9.62,0.09,9.80,-9.63,-0.04,-2.07,9.85
-1.86,-9.65,0.08,9.83,-9.66,-0.05,-2.08,9.88
-1.89,-9.66,0.11,9.84,-9.62,-0.03,-2.10,9.85
-1.87,-9.67,0.10,9.85,-9.62,-0.04,-2.10,9.85
-1.93,-9.66,0.06,9.85,-9.64,-0.07,-2.14,9.87
-1.88,-9.63,0.07,9.82,-9.65,-0.05,-2.14,9.88
-1.89,-9.64,0.10,9.83,-9.65,-0.08,-2.13,9.88
-1.84,-9.63,0.05,9.80,-9.62,-0.03,-2.09,9.85
-1.91,-9.69,0.08,9.88,-9.63,-0.05,-2.17,9.88
-1.93,-9.70,0.20,9.89,-9.67,-0.05,-2.23,9.93
-1.91,-9.67,0.25,9.86,-9.63,-0.06,-2.09,9.86
-1.86,-9.55,0.13,9.73,-9.62,-0.06,-2.29,9.89
-1.85,-9.64,0.04,9.82,-9.61,-0.06,-2.19,9.86
-1.87,-9.65,0.06,9.83,-9.57,-0.06,-2.00,9.78
-1.81,-9.62,0.09,9.79,-9.61,-0.07,-2.22,9.87
-1.91,-9.67,0.25,9.86,-9.57,-0.08,-2.26,9.84
-1.87,-9.64,0.30,9.82,-9.56,-0.08,-2.17,9.81
-1.85,-9.56,0.14,9.74,-9.59,-0.08,-2.14,9.83
-1.85,-9.56,0.07,9.73,-9.56,-0.06,-2.17,9.81
-1.91,-9.64,0.12,9.83,-9.60,-0.04,-2.16,9.84
-1.92,-9.67,0.14,9.86,-9.63,-0.06,-2.18,9.87
-1.86,-9.70,0.17,9.88,-9.68,-0.05,-2.16,9.92
-1.87,-9.79,0.21,9.97,-9.68,-0.07,-2.15,9.91
-1.85,-9.70,0.12,9.87,-9.65,-0.07,-2.13,9.88
-1.88,-9.73,0.25,9.91,-9.63,-0.08,-2.18,9.87
-1.87,-9.62,0.09,9.80,-9.60,-0.04,-2.16,9.84
-1.89,-9.60,0.16,9.78,-9.57,-0.03,-2.13,9.80
-1.91,-9.58,0.24,9.77,-9.56,-0.06,-2.17,9.80
-1.92,-9.62,0.25,9.81,-9.58,-0.06,-2.15,9.82
-1.88,-9.59,0.22,9.77,-9.56,-0.03,-2.18,9.80
-1.85,-9.59,0.20,9.77,-9.59,-0.04,-2.15,9.83
-1.84,-9.66,0.21,9.84,-9.63,-0.08,-2.20,9.88
-1.85,-9.61,0.17,9.79,-9.61,-0.08,-2.19,9.86
-1.86,-9.65,0.18,9.83,-9.59,-0.10,-2.20,9.84
-1.86,-9.62,0.18,9.80,-9.62,-0.05,-2.21,9.87
-1.89,-9.74,0.32,9.93,-9.65,-0.08,-2.20,9.90
-1.84,-9.69,0.30,9.87,-9.65,-0.06,-2.18,9.89
-1.86,-9.61,0.12,9.79,-9.61,-0.07,-2.22,9.86
-1.90,-9.67,0.23,9.85,-9.64,-0.05,-2.26,9.90
-1.91,-9.74,0.25,9.93,-9.66,-0.04,-2.16,9.90
-1.85,-9.59,0.13,9.77,-9.64,-0.07,-2.21,9.89
-1.88,-9.62,0.12,9.80,-9.59,-0.07,-2.21,9.84
-1.85,-9.51,0.19,9.69,-9.58,-0.06,-2.23,9.84
-1.87,-9.58,0.19,9.77,-9.57,-0.05,-2.21,9.82
-1.87,-9.62,0.18,9.80,-9.59,-0.05,-2.19,9.84
-1.86,-9.65,0.09,9.83,-9.58,-0.05,-2.20,9.83
-1.87,-9.61,0.12,9.79,-9.58,-0.05,-2.21,9.83
-1.86,-9.59,0.19,9.77,-9.57,-0.08,-2.23,9.83
-1.89,-9.63,0.19,9.81,-9.58,-0.05,-2.24,9.84
-1.87,-9.60,0.18,9.78,-9.59,-0.05,-2.24,9.84
-1.89,-9.62,0.19,9.81,-9.57,-0.03,-2.25,9.83
-1.90,-9.57,0.20,9.76,-9.59,-0.06,-2.24,9.85
-1.90,-9.62,0.27,9.81,-9.60,-0.07,-2.23,9.85
-1.89,-9.64,0.24,9.83,-9.61,-0.08,-2.24,9.87
-1.91,-9.66,0.19,9.84,-9.64,-0.08,-2.22,9.89
-1.91,-9.69,0.34,9.88,-9.63,-0.07,-2.23,9.89
-1.89,-9.67,0.32,9.86,-9.63,-0.07,-2.24,9.89
-1.88,-9.67,0.22,9.86,-9.62,-0.07,-2.22,9.88
-1.91,-9.66,0.35,9.86,-9.60,-0.07,-2.26,9.87
-1.87,-9.62,0.13,9.80,-9.62,-0.08,-2.27,9.88
-1.85,-9.62,0.23,9.80,-9.63,-0.06,-2.25,9.88
-1.89,-9.67,0.22,9.86,-9.60,-0.08,-2.26,9.86
-1.90,-9.65,0.30,9.84,-9.58,-0.10,-2.28,9.85
-1.89,-9.61,0.26,9.80,-9.60,-0.07,-2.25,9.86
-1.92,-9.61,0.27,9.80,-9.60,-0.08,-2.27,9.87
-1.88,-9.64,0.26,9.83,-9.55,-0.06,-2.25,9.81
-1.88,-9.59,0.13,9.78,-9.58,-0.07,-2.26,9.84
-1.89,-9.62,0.11,9.80,-9.56,-0.06,-2.24,9.82
-1.85,-9.60,0.18,9.78,-9.60,-0.08,-2.23,9.86
-1.90,-9.61,0.25,9.79,-9.56,-0.07,-2.25,9.82
-1.89,-9.67,0.32,9.85,-9.58,-0.08,-2.25,9.84
-1.87,-9.62,0.21,9.81,-9.62,-0.07,-2.26,9.88
-1.88,-9.62,0.20,9.80,-9.60,-0.06,-2.30,9.87
-1.89,-9.63,0.19,9.81,-9.61,-0.08,-2.27,9.88
-1.90,-9.72,0.13,9.90,-9.62,-0.06,-2.29,9.89
-1.87,-9.66,0.16,9.84,-9.63,-0.08,-2.27,9.90
-1.90,-9.68,0.33,9.87,-9.60,-0.09,-2.26,9.87
-1.88,-9.60,0.20,9.79,-9.60,-0.07,-2.30,9.87
-1.90,-9.64,0.26,9.83,-9.60,-0.08,-2.27,9.86
-1.87,-9.61,0.19,9.79,-9.59,-0.10,-2.26,9.86
-1.89,-9.64,0.23,9.82,-9.59,-0.08,-2.30,9.86
-1.94,-9.70,0.33,9.90,-9.59,-0.11,-2.33,9.87
-1.88,-9.60,0.32,9.79,-9.55,-0.13,-2.29,9.82
-1.88,-9.62,0.14,9.81,-9.57,-0.10,-2.28,9.84
-1.89,-9.65,0.22,9.83,-9.59,-0.08,-2.31,9.87
-1.94,-9.63,0.26,9.83,-9.61,-0.11,-2.36,9.89
-1.86,-9.64,0.40,9.83,-9.54,-0.11,-2.20,9.79
-1.91,-9.57,0.35,9.76,-9.58,-0.08,-2.26,9.85
-1.84,-9.60,0.19,9.77,-9.58,-0.09,-2.31,9.86
-1.82,-9.65,0.17,9.82,-9.58,-0.13,-2.24,9.84
-1.80,-9.64,0.21,9.81,-9.58,-0.11,-2.34,9.86
-1.83,-9.62,0.26,9.80,-9.50,-0.12,-2.38,9.80
-1.91,-9.60,0.37,9.79,-9.54,-0.08,-2.31,9.81
-1.92,-9.57,0.30,9.77,-9.57,-0.06,-2.25,9.83
-1.91,-9.56,0.22,9.75,-9.55,-0.06,-2.26,9.81
-1.90,-9.63,0.20,9.81,-9.60,-0.08,-2.29,9.87
-1.89,-9.68,0.23,9.87,-9.65,-0.09,-2.24,9.90
-1.86,-9.69,0.28,9.87,-9.65,-0.10,-2.29,9.92
-1.81,-9.67,0.25,9.84,-9.66,-0.13,-2.26,9.92
-1.85,-9.67,0.22,9.84,-9.61,-0.14,-2.23,9.87
-1.85,-9.65,0.27,9.83,-9.58,-0.15,-2.26,9.84
-1.87,-9.62,0.30,9.81,-9.57,-0.10,-2.29,9.84
-1.87,-9.63,0.27,9.81,-9.53,-0.12,-2.20,9.78
-1.87,-9.61,0.27,9.79,-9.54,-0.10,-2.23,9.80
-1.88,-9.60,0.25,9.78,-9.57,-0.09,-2.27,9.83
-1.85,-9.60,0.23,9.78,-9.56,-0.10,-2.24,9.82
-1.83,-9.61,0.22,9.79,-9.58,-0.07,-2.25,9.84
-1.87,-9.60,0.23,9.79,-9.56,-0.11,-2.27,9.83
-1.86,-9.58,0.21,9.76,-9.57,-0.08,-2.28,9.84
-1.92,-9.64,0.23,9.83,-9.57,-0.08,-2.28,9.84
-1.93,-9.64,0.23,9.83,-9.60,-0.07,-2.27,9.86
-1.90,-9.63,0.19,9.82,-9.59,-0.08,-2.26,9.85
-1.88,-9.64,0.16,9.83,-9.61,-0.09,-2.21,9.86
-1.89,-9.68,0.25,9.87,-9.67,-0.07,-2.40,9.96
-1.90,-9.68,0.32,9.87,-9.59,-0.14,-2.23,9.85
-1.86,-9.62,0.28,9.80,-9.61,-0.07,-2.26,9.87
-1.85,-9.61,0.21,9.79,-9.60,-0.11,-2.18,9.84
-1.86,-9.63,0.28,9.81,-9.61,-0.11,-2.28,9.88
-1.90,-9.63,0.28,9.82,-9.58,-0.10,-2.28,9.85
-1.88,-9.61,0.22,9.80,-9.57,-0.10,-2.30,9.85
-1.89,-9.61,0.18,9.80,-9.56,-0.11,-2.24,9.82
-1.90,-9.63,0.19,9.82,-9.56,-0.13,-2.24,9.82
-1.86,-9.63,0.20,9.81,-9.60,-0.11,-2.28,9.87
-1.82,-9.65,0.16,9.82,-9.60,-0.11,-2.27,9.87
-1.84,-9.63,0.18,9.81,-9.59,-0.12,-2.26,9.85
-1.87,-9.64,0.20,9.83,-9.58,-0.11,-2.27,9.85
-1.86,-9.63,0.31,9.81,-9.62,-0.10,-2.27,9.88
-1.90,-9.64,0.20,9.83,-9.59,-0.08,-2.26,9.85
-1.89,-9.64,0.17,9.82,-9.59,-0.09,-2.29,9.86
-1.89,-9.65,0.19,9.83,-9.60,-0.08,-2.28,9.86
-1.90,-9.65,0.18,9.83,-9.59,-0.06,-2.24,9.84
-1.84,-9.57,-0.04,9.75,-9.60,-0.11,-2.27,9.86
-1.93,-9.75,0.20,9.94,-9.61,-0.09,-2.26,9.87
-1.93,-9.67,0.26,9.87,-9.60,-0.09,-2.25,9.86
-1.89,-9.66,0.18,9.84,-9.61,-0.10,-2.24,9.87
-1.90,-9.66,0.12,9.85,-9.63,-0.08,-2.26,9.90
-1.89,-9.67,0.17,9.85,-9.63,-0.08,-2.25,9.89
-1.89,-9.65,0.17,9.83,-9.60,-0.11,-2.29,9.87
-1.89,-9.61,0.18,9.80,-9.56,-0.10,-2.28,9.83
-1.87,-9.64,0.20,9.83,-9.58,-0.07,-2.27,9.85
-1.89,-9.62,0.17,9.81,-9.59,-0.11,-2.27,9.85
-1.87,-9.60,0.19,9.79,-9.57,-0.10,-2.25,9.83
-1.88,-9.60,0.20,9.79,-9.57,-0.10,-2.25,9.83
-1.87,-9.58,0.19,9.76,-9.59,-0.10,-2.28,9.86
-1.86,-9.62,0.19,9.80,-9.58,-0.10,-2.24,9.84
-1.87,-9.64,0.20,9.82,-9.59,-0.11,-2.24,9.85
-1.90,-9.64,0.21,9.83,-9.60,-0.09,-2.25,9.86
-1.88,-9.63,0.21,9.81,-9.60,-0.11,-2.24,9.86
-1.91,-9.63,0.12,9.82,-9.62,-0.09,-2.25,9.88
-1.91,-9.65,0.10,9.84,-9.60,-0.07,-2.23,9.85
-1.92,-9.65,0.17,9.84,-9.61,-0.06,-2.26,9.87
-1.92,-9.63,0.19,9.82,-9.61,-0.07,-2.21,9.86
-1.90,-9.64,0.20,9.83,-9.59,-0.04,-2.24,9.85
-1.85,-9.64,0.17,9.82,-9.61,-0.08,-2.23,9.87
-1.83,-9.57,-0.16,9.74,-9.60,-0.08,-2.28,9.87
-1.95,-9.68,0.19,9.87,-9.61,-0.07,-2.26,9.87
-1.91,-9.64,0.20,9.83,-9.58,-0.09,-2.23,9.83
-1.86,-9.50,0.17,9.68,-9.58,-0.07,-2.20,9.83
-1.83,-9.57,0.09,9.74,-9.60,-0.07,-2.30,9.87
