Ax,Ay,Az,Amag,Ax2,Ay2,Az2,Amag2
-2.30,-9.67,0.67,9.96,-9.69,0.06,-2.07,9.91
-2.29,-9.65,0.70,9.94,-9.68,0.06,-2.07,9.90
-2.28,-9.62,0.71,9.91,-9.66,0.06,-2.10,9.88
-2.29,-9.62,0.70,9.91,-9.66,0.09,-2.09,9.89
-2.32,-9.62,0.71,9.92,-9.63,0.09,-2.11,9.86
-2.33,-9.58,0.72,9.88,-9.61,0.06,-2.08,9.84
-2.28,-9.57,0.73,9.86,-9.59,0.07,-2.09,9.82
-2.30,-9.57,0.72,9.87,-9.61,0.04,-2.14,9.85
-2.23,-9.56,0.71,9.84,-9.62,0.04,-2.10,9.84
-2.23,-9.60,0.68,9.88,-9.63,0.05,-2.11,9.86
-2.27,-9.61,0.71,9.90,-9.61,0.10,-2.10,9.84
-2.25,-9.58,0.68,9.87,-9.64,0.08,-2.11,9.87
-2.26,-9.61,0.67,9.90,-9.63,0.07,-2.09,9.85
-2.26,-9.60,0.67,9.89,-9.62,0.06,-2.11,9.85
-2.28,-9.62,0.69,9.91,-9.63,0.08,-2.15,9.87
-2.31,-9.62,0.64,9.91,-9.66,0.05,-2.13,9.89
-2.30,-9.63,0.66,9.92,-9.62,0.05,-2.15,9.85
-2.30,-9.62,0.71,9.92,-9.63,0.06,-2.16,9.87
-2.28,-9.61,0.67,9.90,-9.64,0.05,-2.16,9.88
-2.27,-9.61,0.67,9.89,-9.63,0.03,-2.17,9.87
-2.28,-9.60,0.69,9.89,-9.61,0.04,-2.15,9.85
-2.26,-9.61,0.72,9.90,-9.64,0.03,-2.15,9.88
-2.27,-9.61,0.73,9.90,-9.60,0.08,-2.13,9.84
-2.29,-9.59,0.70,9.88,-9.61,0.07,-2.17,9.85
-2.29,-9.57,0.70,9.86,-9.59,0.07,-2.21,9.84
-2.27,-9.58,0.70,9.87,-9.60,0.06,-2.19,9.84
-2.26,-9.57,0.72,9.86,-9.59,0.05,-2.20,9.84
-2.28,-9.57,0.71,9.86,-9.60,0.04,-2.17,9.84
-2.24,-9.57,0.69,9.85,-9.60,0.05,-2.14,9.83
-2.24,-9.60,0.64,9.88,-9.63,0.07,-2.17,9.88
-2.35,-9.71,0.78,10.02,-9.68,0.08,-2.26,9.94
-2.32,-9.69,0.92,10.01,-9.63,0.05,-2.20,9.88
-2.25,-9.54,0.82,9.83,-9.55,0.04,-2.16,9.79
-2.23,-9.46,0.57,9.73,-9.62,0.02,-2.35,9.90
-2.21,-9.67,0.68,9.94,-9.58,0.02,-2.14,9.82
-2.16,-9.61,0.70,9.88,-9.60,0.04,-2.12,9.83
-2.27,-9.61,0.80,9.91,-9.62,0.02,-2.37,9.91
-2.30,-9.56,0.82,9.87,-9.60,0.07,-2.18,9.84
-2.28,-9.53,0.78,9.83,-9.57,0.09,-2.12,9.80
-2.30,-9.58,0.67,9.88,-9.58,0.06,-2.14,9.82
-2.30,-9.62,0.73,9.92,-9.66,0.10,-2.17,9.90
-2.33,-9.63,0.75,9.93,-9.68,0.07,-2.20,9.92
-2.29,-9.64,0.75,9.93,-9.66,0.06,-2.20,9.91
-2.28,-9.67,0.74,9.96,-9.65,0.06,-2.20,9.90
-2.26,-9.63,0.79,9.92,-9.65,0.08,-2.19,9.90
-2.25,-9.65,0.79,9.94,-9.61,0.05,-2.17,9.86
-2.24,-9.59,0.79,9.88,-9.59,0.04,-2.21,9.84
-2.27,-9.57,0.76,9.86,-9.63,0.04,-2.23,9.88
-2.25,-9.58,0.77,9.87,-9.61,0.04,-2.20,9.86
-2.29,-9.58,0.70,9.88,-9.60,0.04,-2.18,9.85
-2.26,-9.59,0.73,9.88,-9.60,0.01,-2.18,9.84
-2.25,-9.60,0.74,9.88,-9.58,0.02,-2.23,9.84
-2.21,-9.58,0.75,9.86,-9.58,0.01,-2.20,9.83
-2.25,-9.58,0.72,9.87,-9.56,0.07,-2.21,9.81
-2.23,-9.57,0.73,9.86,-9.57,0.06,-2.22,9.82
-2.24,-9.60,0.70,9.88,-9.60,0.06,-2.22,9.85
-2.27,-9.60,0.66,9.88,-9.59,0.06,-2.21,9.84
-2.23,-9.61,0.75,9.89,-9.62,0.05,-2.20,9.87
-2.26,-9.59,0.77,9.88,-9.62,0.08,-2.30,9.89
-2.30,-9.63,0.83,9.93,-9.63,0.05,-2.29,9.90
-2.26,-9.59,0.81,9.89,-9.63,0.10,-2.13,9.86
-2.31,-9.59,0.80,9.90,-9.59,0.03,-2.24,9.84
-2.27,-9.58,0.81,9.88,-9.58,0.06,-2.28,9.84
-2.30,-9.57,0.70,9.87,-9.57,0.08,-2.22,9.82
-2.29,-9.58,0.69,9.87,-9.58,0.07,-2.28,9.85
-2.30,-9.61,0.72,9.91,-9.59,0.06,-2.19,9.84
-2.23,-9.59,0.74,9.87,-9.58,0.07,-2.21,9.83
-2.25,-9.58,0.73,9.87,-9.55,0.08,-2.25,9.81
-2.26,-9.56,0.72,9.85,-9.55,0.09,-2.27,9.82
-2.28,-9.58,0.74,9.88,-9.54,0.05,-2.27,9.81
-2.27,-9.55,0.77,9.85,-9.58,0.07,-2.28,9.85
-2.27,-9.55,0.77,9.85,-9.55,0.07,-2.23,9.81
-2.26,-9.56,0.76,9.85,-9.55,0.07,-2.20,9.80
-2.29,-9.58,0.78,9.88,-9.59,0.04,-2.22,9.85
-2.28,-9.58,0.78,9.87,-9.59,0.06,-2.22,9.84
-2.30,-9.58,0.78,9.88,-9.65,0.06,-2.19,9.89
-2.27,-9.63,0.76,9.92,-9.64,0.03,-2.19,9.89
-2.29,-9.63,0.78,9.92,-9.66,0.04,-2.22,9.91
-2.32,-9.63,0.78,9.94,-9.60,0.06,-2.22,9.85
-2.30,-9.58,0.78,9.89,-9.61,0.07,-2.23,9.86
-2.30,-9.60,0.76,9.90,-9.59,0.06,-2.25,9.85
-2.25,-9.59,0.75,9.88,-9.60,0.08,-2.26,9.87
-2.27,-9.60,0.71,9.89,-9.60,0.07,-2.24,9.86
-2.25,-9.59,0.72,9.87,-9.57,0.09,-2.26,9.84
-2.22,-9.60,0.73,9.88,-9.58,0.03,-2.27,9.84
-2.27,-9.59,0.74,9.88,-9.58,0.02,-2.24,9.84
-2.23,-9.61,0.75,9.90,-9.61,0.02,-2.21,9.86
-2.26,-9.62,0.74,9.91,-9.59,0.05,-2.21,9.84
-2.29,-9.59,0.74,9.88,-9.64,0.03,-2.23,9.89
-2.32,-9.61,0.76,9.92,-9.65,0.01,-2.22,9.90
-2.27,-9.62,0.77,9.91,-9.59,0.03,-2.20,9.84
-2.24,-9.64,0.77,9.92,-9.58,0.07,-2.24,9.84
-2.20,-9.58,0.71,9.85,-9.58,0.04,-2.25,9.84
-2.15,-9.57,0.64,9.83,-9.56,0.05,-2.24,9.82
-2.21,-9.63,0.67,9.90,-9.59,0.07,-2.31,9.87
-2.31,-9.65,0.82,9.96,-9.65,0.09,-2.35,9.93
-2.33,-9.62,0.89,9.93,-9.57,0.03,-2.21,9.82
-2.22,-9.49,0.65,9.77,-9.55,0.04,-2.19,9.80
-2.26,-9.60,0.62,9.89,-9.64,0.03,-2.30,9.91
-2.23,-9.65,0.75,9.93,-9.61,0.03,-2.15,9.84
-2.23,-9.62,0.71,9.90,-9.65,0.03,-2.24,9.91
-2.28,-9.65,0.79,9.95,-9.58,0.02,-2.35,9.87
-2.29,-9.58,0.78,9.88,-9.55,0.08,-2.18,9.80
-2.30,-9.52,0.72,9.82,-9.56,0.05,-2.18,9.81
-2.28,-9.57,0.66,9.86,-9.59,0.04,-2.21,9.84
-2.29,-9.62,0.68,9.91,-9.61,0.06,-2.19,9.85
-2.27,-9.63,0.74,9.92,-9.66,0.08,-2.19,9.90
-2.26,-9.63,0.73,9.92,-9.64,0.06,-2.19,9.89
-2.21,-9.64,0.72,9.92,-9.65,0.06,-2.18,9.89
-2.23,-9.63,0.77,9.92,-9.61,0.02,-2.23,9.86
-2.22,-9.61,0.76,9.89,-9.59,0.06,-2.19,9.84
-2.27,-9.57,0.77,9.86,-9.59,0.06,-2.16,9.83
-2.29,-9.56,0.74,9.86,-9.60,0.05,-2.17,9.85
-2.30,-9.57,0.74,9.87,-9.61,0.02,-2.21,9.86
-2.30,-9.57,0.73,9.87,-9.61,0.00,-2.14,9.85
-2.26,-9.60,0.71,9.88,-9.63,0.05,-2.15,9.87
-2.26,-9.61,0.72,9.90,-9.63,0.04,-2.18,9.87
-2.28,-9.60,0.71,9.90,-9.62,0.04,-2.13,9.86
-2.27,-9.62,0.69,9.90,-9.63,0.07,-2.15,9.87
-2.28,-9.59,0.74,9.88,-9.61,0.04,-2.15,9.85
-2.28,-9.61,0.71,9.90,-9.64,0.06,-2.18,9.88
-2.20,-9.61,0.70,9.88,-9.62,0.08,-2.13,9.86
-2.25,-9.60,0.66,9.88,-9.58,0.06,-2.16,9.82
-2.26,-9.63,0.70,9.91,-9.66,0.11,-2.20,9.91
-2.27,-9.65,0.79,9.94,-9.62,0.04,-2.14,9.86
-2.23,-9.62,0.75,9.90,-9.60,0.07,-2.05,9.81
-2.28,-9.59,0.77,9.89,-9.62,0.00,-2.19,9.87
-2.29,-9.55,0.78,9.85,-9.58,0.04,-2.18,9.82
-2.27,-9.56,0.70,9.85,-9.55,0.04,-2.16,9.80
-2.28,-9.56,0.61,9.84,-9.61,0.04,-2.19,9.85
-2.28,-9.61,0.69,9.90,-9.60,0.03,-2.19,9.85
-2.25,-9.61,0.69,9.90,-9.60,0.04,-2.17,9.85
-2.24,-9.62,0.68,9.90,-9.61,0.02,-2.13,9.84
-2.27,-9.59,0.70,9.88,-9.67,0.02,-2.13,9.90
-2.27,-9.66,0.69,9.95,-9.67,0.06,-2.15,9.91
-2.25,-9.66,0.70,9.95,-9.65,0.06,-2.15,9.89
-2.28,-9.66,0.68,9.95,-9.66,0.06,-2.19,9.90
-2.31,-9.63,0.74,9.93,-9.65,0.03,-2.15,9.88
-2.31,-9.64,0.72,9.94,-9.65,0.04,-2.14,9.89
-2.30,-9.61,0.71,9.90,-9.63,0.05,-2.13,9.87
-2.29,-9.61,0.68,9.90,-9.66,0.02,-2.11,9.89
-2.27,-9.61,0.64,9.89,-9.62,0.03,-2.12,9.86
-2.28,-9.64,0.65,9.93,-9.64,0.01,-2.13,9.88
-2.29,-9.62,0.66,9.91,-9.63,0.04,-2.16,9.87
-2.27,-9.62,0.72,9.91,-9.60,0.02,-2.14,9.84
-2.26,-9.57,0.69,9.85,-9.60,0.02,-2.15,9.84
-2.28,-9.58,0.68,9.87,-9.62,0.07,-2.16,9.86
-2.24,-9.59,0.66,9.87,-9.64,0.05,-2.12,9.87
-2.24,-9.61,0.67,9.89,-9.62,0.05,-2.15,9.85
-2.29,-9.61,0.66,9.90,-9.60,0.04,-2.15,9.83
-2.28,-9.61,0.67,9.90,-9.63,0.05,-2.16,9.87
-2.29,-9.57,0.64,9.86,-9.62,0.08,-2.15,9.86
-2.27,-9.61,0.68,9.90,-9.62,0.05,-2.14,9.85
-2.29,-9.62,0.71,9.91,-9.61,0.05,-2.12,9.84
-2.29,-9.60,0.73,9.90,-9.63,0.06,-2.12,9.86
-2.29,-9.61,0.72,9.91,-9.64,0.06,-2.12,9.87
-2.32,-9.59,0.68,9.88,-9.65,0.06,-2.13,9.88
-2.27,-9.60,0.68,9.89,-9.64,0.05,-2.15,9.87
-2.29,-9.59,0.68,9.88,-9.67,0.07,-2.11,9.89
-2.21,-9.58,0.63,9.85,-9.69,0.05,-2.13,9.93
-2.27,-9.65,0.58,9.93,-9.68,0.06,-2.21,9.93
-2.36,-9.73,0.69,10.03,-9.68,0.05,-2.26,9.94
-2.33,-9.75,0.84,10.06,-9.62,0.05,-2.16,9.86
-2.31,-9.62,0.72,9.92,-9.56,0.03,-1.99,9.76
-2.20,-9.62,0.52,9.88,-9.61,0.02,-2.21,9.86
-2.26,-9.66,0.67,9.94,-9.59,-0.00,-2.00,9.80
-2.20,-9.62,0.58,9.88,-9.58,0.02,-2.04,9.79
-2.30,-9.66,0.70,9.95,-9.61,0.01,-2.22,9.87
-2.29,-9.62,0.82,9.92,-9.61,0.03,-2.10,9.83
-2.28,-9.53,0.70,9.82,-9.58,0.03,-2.03,9.79
-2.23,-9.53,0.58,9.80,-9.59,-0.02,-2.10,9.81
-2.31,-9.57,0.56,9.86,-9.58,0.00,-2.15,9.82
-2.30,-9.60,0.61,9.89,-9.62,0.03,-2.14,9.85
-2.27,-9.62,0.65,9.91,-9.67,0.08,-2.16,9.91
-2.23,-9.63,0.59,9.90,-9.68,0.04,-2.14,9.91
-2.25,-9.66,0.66,9.94,-9.62,0.01,-2.16,9.86
-2.27,-9.64,0.67,9.93,-9.63,0.05,-2.12,9.86
-2.21,-9.65,0.67,9.92,-9.64,0.06,-2.13,9.87
-2.26,-9.59,0.62,9.87,-9.63,0.03,-2.10,9.85
-2.30,-9.59,0.64,9.89,-9.62,0.05,-2.07,9.84
-2.29,-9.58,0.66,9.87,-9.61,0.05,-2.09,9.83
-2.29,-9.58,0.66,9.87,-9.59,0.06,-2.08,9.82
-2.26,-9.57,0.66,9.86,-9.59,0.01,-2.09,9.82
-2.25,-9.55,0.68,9.84,-9.60,0.01,-2.10,9.83
-2.27,-9.53,0.67,9.82,-9.60,0.03,-2.11,9.83
-2.29,-9.56,0.67,9.85,-9.58,0.03,-2.13,9.81
-2.29,-9.57,0.67,9.86,-9.64,0.04,-2.07,9.86
-2.30,-9.59,0.64,9.88,-9.63,0.05,-2.10,9.86
-2.30,-9.61,0.64,9.90,-9.64,0.02,-2.05,9.85
-2.27,-9.65,0.64,9.93,-9.64,0.04,-2.06,9.86
-2.28,-9.63,0.60,9.92,-9.68,0.06,-2.08,9.90
-2.31,-9.69,0.71,9.99,-9.69,0.06,-2.11,9.91
-2.28,-9.64,0.75,9.93,-9.67,0.07,-2.04,9.88
-2.27,-9.60,0.62,9.88,-9.60,0.00,-2.07,9.82
-2.29,-9.61,0.61,9.90,-9.63,-0.00,-2.08,9.85
-2.30,-9.60,0.62,9.89,-9.62,0.04,-2.05,9.84
-2.27,-9.60,0.62,9.89,-9.67,0.09,-2.10,9.89
-2.27,-9.61,0.61,9.90,-9.62,0.05,-2.10,9.85
-2.28,-9.61,0.57,9.89,-9.62,0.03,-2.04,9.83
-2.30,-9.64,0.60,9.92,-9.68,0.09,-2.05,9.90
-2.27,-9.61,0.63,9.90,-9.66,0.05,-2.09,9.89
-2.31,-9.64,0.63,9.94,-9.64,0.07,-2.11,9.87
-2.28,-9.62,0.61,9.90,-9.66,0.06,-2.04,9.88
-2.29,-9.61,0.66,9.90,-9.63,0.05,-2.07,9.85
-2.33,-9.60,0.65,9.90,-9.61,0.01,-2.10,9.84
-2.30,-9.59,0.64,9.88,-9.63,0.03,-2.13,9.86
-2.27,-9.61,0.62,9.89,-9.62,0.06,-2.08,9.85
-2.30,-9.60,0.60,9.89,-9.60,0.04,-2.04,9.82
-2.29,-9.61,0.63,9.90,-9.62,-0.00,-2.11,9.85
-2.30,-9.60,0.63,9.89,-9.63,0.03,-2.13,9.86
-2.33,-9.63,0.64,9.93,-9.64,0.05,-2.11,9.87
-2.31,-9.60,0.64,9.90,-9.62,0.05,-2.12,9.85
-2.32,-9.59,0.63,9.89,-9.63,0.06,-2.10,9.86
-2.32,-9.60,0.64,9.89,-9.63,0.04,-2.11,9.86
-2.29,-9.57,0.65,9.87,-9.59,0.07,-2.14,9.83
-2.30,-9.58,0.60,9.87,-9.59,0.06,-2.14,9.82
-2.31,-9.61,0.59,9.90,-9.60,0.04,-2.14,9.83
-2.31,-9.60,0.58,9.89,-9.63,0.04,-2.14,9.86
-2.31,-9.60,0.59,9.90,-9.62,0.04,-2.11,9.85
-2.32,-9.62,0.62,9.92,-9.65,0.12,-2.06,9.87
-2.29,-9.61,0.66,9.90,-9.66,0.06,-2.10,9.88
-2.28,-9.60,0.64,9.89,-9.66,0.08,-2.15,9.90
-2.31,-9.60,0.63,9.89,-9.64,0.05,-2.09,9.87
-2.31,-9.58,0.62,9.88,-9.61,0.03,-2.12,9.84
-2.31,-9.61,0.63,9.90,-9.63,0.02,-2.09,9.86
-2.24,-9.54,0.62,9.82,-9.65,0.03,-2.09,9.88
-2.36,-9.67,0.66,9.98,-9.70,0.08,-2.08,9.92
-2.35,-9.70,0.85,10.02,-9.70,0.09,-2.16,9.94
-2.35,-9.61,0.79,9.92,-9.63,0.06,-1.97,9.83
-2.32,-9.48,0.55,9.77,-9.60,0.09,-1.97,9.80
-2.24,-9.56,0.53,9.83,-9.57,0.06,-2.13,9.81
-2.27,-9.58,0.58,9.86,-9.63,0.12,-2.13,9.86
-2.33,-9.58,0.55,9.88,-9.61,0.11,-2.10,9.84
-2.38,-9.61,0.67,9.93,-9.66,0.07,-2.20,9.91
-2.35,-9.59,0.72,9.90,-9.61,0.09,-2.06,9.83
-2.33,-9.54,0.66,9.84,-9.57,0.03,-2.03,9.79
-2.33,-9.57,0.56,9.86,-9.63,0.03,-2.02,9.84
-2.34,-9.59,0.60,9.89,-9.62,0.06,-2.07,9.84
-2.35,-9.62,0.62,9.92,-9.66,0.09,-2.09,9.88
-2.30,-9.63,0.62,9.92,-9.71,0.08,-2.07,9.93
-2.30,-9.63,0.63,9.92,-9.70,0.07,-2.02,9.91
-2.30,-9.65,0.65,9.94,-9.67,0.07,-1.98,9.87
-2.31,-9.63,0.67,9.93,-9.65,0.02,-2.02,9.86
-2.31,-9.64,0.64,9.93,-9.64,0.05,-2.07,9.86
-2.31,-9.57,0.62,9.87,-9.66,0.02,-2.04,9.88
-2.32,-9.59,0.61,9.88,-9.63,0.01,-1.98,9.83
-2.30,-9.59,0.62,9.88,-9.61,0.06,-2.02,9.82
-2.30,-9.57,0.60,9.87,-9.65,0.08,-2.05,9.86
-2.30,-9.59,0.61,9.88,-9.63,0.08,-2.04,9.84
-2.28,-9.58,0.58,9.86,-9.60,0.11,-1.98,9.81
-2.29,-9.57,0.57,9.86,-9.61,0.07,-2.02,9.82
-2.31,-9.57,0.59,9.86,-9.60,0.10,-2.02,9.82
-2.33,-9.57,0.61,9.87,-9.62,0.10,-2.01,9.83
-2.38,-9.59,0.57,9.90,-9.63,0.10,-2.01,9.83
-2.29,-9.61,0.57,9.90,-9.67,0.07,-2.04,9.88
-2.32,-9.62,0.49,9.91,-9.65,0.09,-2.04,9.86
-2.37,-9.67,0.65,9.98,-9.65,0.06,-2.12,9.88
-2.29,-9.60,0.63,9.89,-9.65,0.03,-2.13,9.88
-2.28,-9.53,0.53,9.81,-9.61,0.05,-1.94,9.80
-2.35,-9.60,0.55,9.89,-9.67,0.03,-1.91,9.86
-2.43,-9.58,0.61,9.90,-9.65,0.07,-1.95,9.84
-2.40,-9.58,0.64,9.90,-9.64,0.11,-2.08,9.86
-2.36,-9.57,0.61,9.87,-9.62,0.08,-2.08,9.84
-2.34,-9.56,0.54,9.86,-9.63,0.08,-2.02,9.83
-2.34,-9.59,0.50,9.88,-9.61,0.07,-1.93,9.80
-2.33,-9.61,0.54,9.91,-9.67,0.14,-1.95,9.87
-2.35,-9.63,0.52,9.93,-9.68,0.12,-2.02,9.89
-2.32,-9.61,0.55,9.90,-9.68,0.11,-2.03,9.89
-2.29,-9.63,0.55,9.92,-9.65,0.06,-2.03,9.86
-2.29,-9.61,0.57,9.90,-9.68,0.06,-2.04,9.90
-2.28,-9.60,0.61,9.89,-9.66,0.10,-2.00,9.86
-2.36,-9.62,0.58,9.92,-9.65,0.11,-1.94,9.84
-2.35,-9.61,0.61,9.91,-9.72,0.07,-1.92,9.91
-2.37,-9.63,0.57,9.94,-9.73,0.01,-1.96,9.93
-2.38,-9.65,0.59,9.95,-9.71,0.04,-2.00,9.92
-2.34,-9.62,0.59,9.92,-9.66,0.03,-2.01,9.86
-2.27,-9.61,0.55,9.89,-9.61,0.01,-2.02,9.82
-2.25,-9.58,0.51,9.86,-9.64,0.04,-2.01,9.85
-2.21,-9.59,0.53,9.86,-9.64,0.04,-2.06,9.86
-2.19,-9.60,0.51,9.86,-9.63,0.01,-2.00,9.83
-2.18,-9.58,0.54,9.84,-9.60,0.03,-2.04,9.82
-2.19,-9.55,0.51,9.81,-9.61,0.06,-2.11,9.84
-2.23,-9.55,0.47,9.82,-9.60,0.11,-2.09,9.82
-2.30,-9.56,0.43,9.84,-9.64,0.08,-2.04,9.85
-2.35,-9.61,0.44,9.91,-9.66,0.10,-2.04,9.88
-2.37,-9.61,0.48,9.91,-9.68,0.10,-2.05,9.89
-2.38,-9.59,0.48,9.89,-9.67,0.06,-2.02,9.88
-2.36,-9.60,0.50,9.90,-9.67,0.14,-2.06,9.89
-2.47,-9.63,0.67,9.96,-9.74,0.13,-2.17,9.98
-2.39,-9.56,0.60,9.87,-9.65,0.10,-2.12,9.88
-2.30,-9.50,0.45,9.79,-9.64,0.08,-2.05,9.85
-2.21,-9.64,0.22,9.89,-9.73,0.02,-2.18,9.97
-2.22,-9.78,0.44,10.04,-9.65,0.06,-1.99,9.85
-2.22,-9.70,0.37,9.96,-9.68,-0.01,-2.04,9.89
-2.22,-9.74,0.45,10.00,-9.75,-0.01,-2.19,9.99
-2.31,-9.69,0.51,9.98,-9.68,-0.01,-2.31,9.95
-2.21,-9.58,0.56,9.85,-9.59,0.09,-2.10,9.82
-2.26,-9.52,0.45,9.79,-9.58,0.13,-2.14,9.81
-2.30,-9.56,0.39,9.84,-9.58,0.10,-2.17,9.82
-2.35,-9.63,0.42,9.92,-9.64,0.10,-2.19,9.89
-2.33,-9.64,0.44,9.93,-9.58,0.10,-2.13,9.81
-2.29,-9.66,0.46,9.94,-9.67,0.09,-2.14,9.90
-2.31,-9.69,0.51,9.97,-9.64,0.01,-2.19,9.89
-2.26,-9.68,0.55,9.96,-9.66,0.10,-2.14,9.89
-2.29,-9.69,0.55,9.97,-9.65,0.04,-2.09,9.87
-2.25,-9.67,0.57,9.95,-9.67,0.14,-2.06,9.89
-2.24,-9.65,0.57,9.92,-9.68,0.11,-2.09,9.91
-2.28,-9.60,0.64,9.89,-9.60,0.00,-2.09,9.82
-2.31,-9.57,0.57,9.86,-9.74,0.19,-2.27,10.00
-2.34,-9.55,0.57,9.85,-9.51,0.09,-2.00,9.72
-2.33,-9.54,0.58,9.84,-9.59,0.08,-2.19,9.84
-2.37,-9.50,0.54,9.81,-9.56,0.02,-2.14,9.80
-2.35,-9.54,0.54,9.84,-9.53,0.11,-2.14,9.76
-2.35,-9.57,0.47,9.86,-9.59,0.08,-2.22,9.84
-2.27,-9.61,0.47,9.88,-9.66,0.11,-2.13,9.89
-2.26,-9.66,0.50,9.93,-9.63,0.19,-2.13,9.87
-2.33,-9.66,0.43,9.95,-9.63,0.16,-2.17,9.87
-2.46,-9.68,0.67,10.02,-9.62,0.15,-2.30,9.89
-2.40,-9.63,0.66,9.95,-9.64,0.16,-2.12,9.87
-2.40,-9.59,0.61,9.91,-9.63,0.07,-2.16,9.87
-2.42,-9.59,0.57,9.90,-9.64,0.11,-2.23,9.90
-2.49,-9.60,0.62,9.94,-9.62,0.13,-2.18,9.87
-2.47,-9.54,0.60,9.87,-9.62,0.19,-2.25,9.88
-2.45,-9.57,0.56,9.89,-9.57,0.18,-2.21,9.82
-2.41,-9.57,0.56,9.88,-9.55,0.16,-2.23,9.81
-2.37,-9.58,0.56,9.88,-9.57,0.17,-2.19,9.82
-2.31,-9.58,0.57,9.87,-9.58,0.14,-2.20,9.83
-2.33,-9.57,0.56,9.86,-9.57,0.12,-2.20,9.82
-2.35,-9.54,0.58,9.85,-9.57,0.16,-2.22,9.82
-2.33,-9.54,0.58,9.84,-9.54,0.17,-2.25,9.81
-2.36,-9.54,0.55,9.84,-9.53,0.14,-2.30,9.80
-2.34,-9.52,0.54,9.82,-9.53,0.08,-2.29,9.80
-2.29,-9.52,0.59,9.81,-9.54,0.06,-2.25,9.80
-2.28,-9.53,0.65,9.82,-9.50,0.07,-2.24,9.76
-2.25,-9.47,0.64,9.75,-9.49,0.07,-2.27,9.76
-2.24,-9.45,0.65,9.73,-9.46,0.06,-2.28,9.73
-2.22,-9.51,0.59,9.79,-9.50,0.05,-2.25,9.77
-2.28,-9.55,0.53,9.83,-9.55,0.01,-2.27,9.81
-2.27,-9.54,0.48,9.82,-9.56,-0.01,-2.28,9.83
-2.31,-9.55,0.48,9.84,-9.52,-0.01,-2.35,9.80
-2.30,-9.55,0.50,9.83,-9.52,0.04,-2.50,9.85
-2.29,-9.53,0.48,9.81,-9.51,0.06,-2.51,9.83
-2.28,-9.56,0.42,9.83,-9.49,0.04,-2.51,9.82
-2.27,-9.60,0.42,9.87,-9.54,0.06,-2.37,9.83
-2.30,-9.63,0.43,9.91,-9.53,0.09,-2.31,9.81
-2.34,-9.63,0.42,9.92,-9.63,0.08,-2.29,9.90
-2.34,-9.66,0.49,9.95,-9.64,0.07,-2.30,9.91
-2.37,-9.67,0.55,9.97,-9.65,0.05,-2.30,9.92
-2.38,-9.67,0.54,9.97,-9.62,0.03,-2.26,9.88
-2.35,-9.62,0.49,9.92,-9.61,0.02,-1.99,9.82
-2.34,-9.64,0.52,9.94,-9.82,0.15,-2.05,10.03
-2.32,-9.76,0.79,10.06,-9.89,0.15,-2.26,10.15
-2.28,-9.65,0.70,9.94,-9.69,0.06,-2.12,9.92
-2.21,-9.48,0.61,9.75,-9.51,-0.04,-2.12,9.75
-2.22,-9.62,0.50,9.88,-9.67,0.05,-2.11,9.90
-2.24,-9.69,0.59,9.96,-9.61,0.05,-2.03,9.82
-2.24,-9.62,0.60,9.89,-9.66,0.02,-2.23,9.91
-2.28,-9.63,0.69,9.92,-9.60,0.10,-2.32,9.87
-2.35,-9.58,0.68,9.89,-9.61,0.10,-2.15,9.85
-2.40,-9.53,0.63,9.85,-9.59,0.07,-2.08,9.81
-2.40,-9.62,0.56,9.93,-9.64,0.05,-2.11,9.87
-2.36,-9.72,0.60,10.02,-9.74,0.05,-2.08,9.96
-2.27,-9.69,0.63,9.97,-9.69,-0.02,-2.18,9.93
-2.21,-9.65,0.61,9.91,-9.69,0.01,-2.23,9.94
-2.18,-9.60,0.61,9.86,-9.58,0.04,-2.28,9.85
-2.23,-9.58,0.62,9.86,-9.60,0.07,-2.22,9.85
-2.19,-9.56,0.61,9.83,-9.58,0.03,-2.18,9.82
-2.22,-9.59,0.60,9.86,-9.56,-0.02,-2.17,9.80
-2.19,-9.60,0.59,9.87,-9.54,-0.02,-2.17,9.78
-2.16,-9.61,0.58,9.87,-9.56,-0.03,-2.15,9.80
-2.16,-9.54,0.55,9.80,-9.54,-0.03,-2.23,9.80
-2.16,-9.58,0.52,9.83,-9.56,0.01,-2.17,9.80
-2.18,-9.58,0.52,9.84,-9.61,0.05,-2.17,9.85
-2.23,-9.60,0.56,9.87,-9.63,0.07,-2.21,9.88
-2.30,-9.66,0.56,9.94,-9.64,0.08,-2.20,9.89
-2.36,-9.69,0.60,9.99,-9.73,0.11,-2.17,9.97
-2.33,-9.69,0.53,9.98,-9.79,0.03,-2.15,10.02
-2.34,-9.76,0.54,10.05,-9.74,0.04,-2.13,9.97
-2.34,-9.78,0.53,10.07,-9.74,-0.02,-2.22,9.99
-2.30,-9.73,0.61,10.02,-9.69,-0.00,-2.27,9.95
-2.11,-9.66,0.59,9.91,-9.54,0.01,-2.17,9.79
-2.09,-9.60,0.58,9.85,-9.47,0.03,-2.27,9.74
-2.14,-9.53,0.62,9.78,-9.50,0.09,-2.28,9.77
-2.10,-9.48,0.52,9.72,-9.53,0.08,-2.25,9.79
-2.16,-9.60,0.50,9.85,-9.61,-0.05,-2.26,9.87
-2.15,-9.68,0.52,9.93,-9.62,-0.04,-2.18,9.87
-2.12,-9.68,0.50,9.92,-9.60,-0.01,-2.18,9.84
-2.09,-9.69,0.57,9.93,-9.60,0.03,-2.18,9.84
-2.12,-9.63,0.54,9.88,-9.59,0.07,-2.22,9.85
-2.22,-9.62,0.57,9.89,-9.64,0.09,-2.18,9.88
-2.29,-9.65,0.57,9.93,-9.67,0.08,-2.13,9.90
-2.30,-9.66,0.63,9.95,-9.70,0.01,-2.15,9.94
-2.28,-9.67,0.67,9.96,-9.69,0.02,-2.13,9.92
-2.30,-9.68,0.67,9.98,-9.66,0.02,-2.15,9.90
-2.26,-9.65,0.63,9.93,-9.65,-0.01,-2.19,9.89
-2.28,-9.64,0.62,9.93,-9.64,-0.01,-2.19,9.88
-2.24,-9.65,0.59,9.93,-9.63,0.01,-2.21,9.88
-2.22,-9.61,0.57,9.88,-9.54,-0.01,-2.24,9.80
-2.20,-9.61,0.58,9.87,-9.57,-0.00,-2.25,9.83
-2.20,-9.60,0.57,9.86,-9.57,-0.01,-2.19,9.82
-2.19,-9.57,0.53,9.83,-9.58,0.03,-2.18,9.83
-2.19,-9.62,0.54,9.88,-9.58,0.08,-2.21,9.83
-2.25,-9.64,0.54,9.91,-9.63,0.12,-2.19,9.88
-2.26,-9.64,0.57,9.92,-9.60,0.14,-2.18,9.85
-2.29,-9.61,0.56,9.90,-9.60,0.18,-2.18,9.84
-2.29,-9.62,0.56,9.91,-9.61,0.20,-2.20,9.86
-2.27,-9.60,0.57,9.88,-9.59,0.09,-2.23,9.85
-2.28,-9.61,0.56,9.90,-9.56,0.08,-2.20,9.81
-2.26,-9.62,0.57,9.90,-9.60,0.08,-2.26,9.86
-2.27,-9.64,0.57,9.92,-9.60,0.09,-2.29,9.87
-2.31,-9.60,0.53,9.89,-9.60,0.08,-2.24,9.86
-2.37,-9.62,0.53,9.92,-9.64,0.12,-2.26,9.90
-2.34,-9.60,0.50,9.89,-9.65,0.14,-2.23,9.91
-2.41,-9.68,0.50,9.99,-9.70,0.15,-2.19,9.94
-2.54,-9.74,0.68,10.09,-9.70,0.13,-2.18,9.94
-2.44,-9.67,0.82,10.01,-9.63,0.14,-2.06,9.84
-2.40,-9.49,0.58,9.80,-9.56,0.17,-2.11,9.79
-2.29,-9.46,0.37,9.74,-9.66,0.10,-2.36,9.94
-2.25,-9.66,0.51,9.94,-9.54,0.09,-2.11,9.77
-2.22,-9.61,0.45,9.88,-9.59,0.08,-2.25,9.85
-2.33,-9.61,0.61,9.91,-9.55,0.06,-2.30,9.82
-2.29,-9.58,0.67,9.88,-9.53,0.11,-2.24,9.79
-2.29,-9.49,0.58,9.78,-9.50,0.07,-2.26,9.76
-2.30,-9.52,0.53,9.81,-9.50,0.03,-2.21,9.75
-2.28,-9.56,0.47,9.84,-9.60,0.07,-2.29,9.87
-2.27,-9.64,0.49,9.91,-9.59,0.05,-2.23,9.85
-2.27,-9.65,0.56,9.92,-9.67,0.04,-2.24,9.93
-2.26,-9.70,0.55,9.97,-9.66,0.03,-2.20,9.91
-2.25,-9.75,0.57,10.02,-9.72,0.06,-2.15,9.95
-2.26,-9.75,0.58,10.03,-9.68,-0.01,-2.13,9.91
-2.23,-9.73,0.60,10.00,-9.66,-0.10,-2.16,9.90
-2.21,-9.69,0.62,9.96,-9.58,-0.11,-2.19,9.83
-2.14,-9.60,0.61,9.86,-9.53,-0.09,-2.19,9.78
-2.09,-9.50,0.62,9.75,-9.48,-0.03,-2.25,9.75
-2.13,-9.43,0.60,9.69,-9.46,-0.01,-2.21,9.71
-2.13,-9.40,0.53,9.65,-9.47,0.01,-2.25,9.74
-2.12,-9.46,0.50,9.71,-9.49,0.02,-2.29,9.77
-2.10,-9.53,0.45,9.77,-9.43,0.03,-2.30,9.71
-2.07,-9.57,0.43,9.80,-9.44,0.06,-2.35,9.73
-2.08,-9.59,0.52,9.83,-9.53,0.07,-2.38,9.83
-2.18,-9.61,0.52,9.87,-9.66,0.10,-2.06,9.87
-2.21,-9.75,0.64,10.02,-9.85,0.13,-2.18,10.09
-2.37,-9.71,0.57,10.01,-9.80,0.12,-1.93,9.99
-2.55,-9.80,0.81,10.16,-9.88,0.12,-2.04,10.08
-2.53,-9.79,0.68,10.14,-9.90,0.14,-2.01,10.10
-2.57,-9.76,0.63,10.12,-9.75,0.09,-1.87,9.93
-2.55,-9.70,0.71,10.06,-9.80,0.07,-2.12,10.02
-2.51,-9.62,0.72,9.97,-9.67,0.10,-2.04,9.88
-2.48,-9.59,0.62,9.92,-9.67,0.14,-2.18,9.91
-2.38,-9.56,0.63,9.87,-9.58,0.09,-2.15,9.82
-2.31,-9.57,0.55,9.86,-9.50,0.08,-2.21,9.76
-2.22,-9.54,0.51,9.81,-9.52,0.07,-2.20,9.77
-2.18,-9.54,0.46,9.80,-9.47,0.07,-2.13,9.71
-2.17,-9.57,0.45,9.83,-9.51,0.05,-2.27,9.77
-2.17,-9.57,0.45,9.83,-9.49,0.02,-2.22,9.75
-2.18,-9.56,0.49,9.82,-9.54,0.02,-2.29,9.81
-2.15,-9.59,0.47,9.84,-9.54,0.01,-2.25,9.80
-2.19,-9.62,0.50,9.88,-9.57,0.05,-2.23,9.83
-2.22,-9.62,0.51,9.89,-9.57,0.07,-2.27,9.84
-2.21,-9.63,0.46,9.89,-9.60,0.13,-2.17,9.84
-2.27,-9.60,0.46,9.87,-9.66,0.17,-2.19,9.90
-2.33,-9.63,0.53,9.93,-9.67,0.17,-2.13,9.90
-2.42,-9.66,0.55,9.98,-9.70,0.12,-2.11,9.93
-2.46,-9.66,0.58,9.99,-9.75,0.11,-2.09,9.97
-2.44,-9.67,0.55,9.99,-9.70,0.14,-2.12,9.93
-2.40,-9.70,0.57,10.00,-9.69,0.14,-2.08,9.92
-2.35,-9.70,0.58,10.00,-9.68,0.11,-2.11,9.90
-2.29,-9.66,0.56,9.94,-9.65,0.07,-2.12,9.88
-2.23,-9.65,0.55,9.92,-9.67,0.08,-2.16,9.91
-2.18,-9.65,0.52,9.91,-9.63,0.04,-2.20,9.88
-2.16,-9.64,0.55,9.89,-9.60,0.02,-2.17,9.84
-2.14,-9.62,0.54,9.87,-9.59,-0.02,-2.15,9.83
-2.15,-9.60,0.53,9.86,-9.56,-0.01,-2.10,9.79
-2.09,-9.60,0.56,9.84,-9.55,0.04,-2.17,9.80
-2.12,-9.58,0.54,9.83,-9.53,0.06,-2.19,9.78
-2.16,-9.57,0.49,9.83,-9.56,0.11,-2.20,9.81
-2.22,-9.59,0.47,9.85,-9.57,0.08,-2.21,9.82
-2.26,-9.60,0.46,9.87,-9.58,0.07,-2.20,9.83
-2.27,-9.63,0.49,9.91,-9.62,0.08,-2.18,9.86
-2.28,-9.60,0.48,9.88,-9.64,0.10,-2.14,9.88
-2.33,-9.64,0.43,9.93,-9.65,0.14,-2.20,9.90
-2.45,-9.72,0.54,10.04,-9.75,0.17,-2.26,10.01
-2.51,-9.72,0.59,10.06,-9.73,0.18,-2.09,9.95
-2.55,-9.58,0.51,9.93,-9.70,0.16,-2.11,9.93
-2.46,-9.56,0.34,9.87,-9.78,0.16,-2.28,10.05
-2.47,-9.71,0.46,10.03,-9.66,0.11,-2.03,9.87
-2.43,-9.71,0.43,10.02,-9.74,0.10,-2.14,9.97
-2.45,-9.73,0.59,10.05,-9.68,0.07,-2.25,9.93
-2.45,-9.66,0.66,9.99,-9.58,0.11,-2.18,9.83
-2.33,-9.51,0.55,9.81,-9.52,0.16,-2.20,9.77
-2.26,-9.45,0.47,9.73,-9.46,0.10,-2.19,9.71
-2.20,-9.48,0.42,9.74,-9.45,0.13,-2.27,9.72
-2.16,-9.49,0.44,9.74,-9.51,0.13,-2.26,9.77
-2.21,-9.54,0.46,9.81,-9.54,0.10,-2.18,9.78
-2.20,-9.62,0.49,9.88,-9.56,0.10,-2.19,9.81
-2.23,-9.63,0.49,9.89,-9.60,0.09,-2.15,9.84
-2.22,-9.67,0.53,9.93,-9.62,0.11,-2.14,9.86
-2.30,-9.64,0.51,9.92,-9.60,0.11,-2.17,9.84
-2.33,-9.60,0.53,9.89,-9.62,0.12,-2.17,9.86
-2.34,-9.64,0.52,9.93,-9.66,0.16,-2.15,9.90
-2.39,-9.61,0.50,9.92,-9.65,0.12,-2.09,9.88
-2.41,-9.64,0.52,9.95,-9.67,0.16,-2.09,9.90
-2.39,-9.64,0.57,9.95,-9.65,0.18,-2.11,9.88
-2.40,-9.62,0.54,9.93,-9.62,0.14,-2.10,9.85
-2.38,-9.61,0.53,9.91,-9.64,0.16,-2.18,9.88
-2.36,-9.60,0.54,9.90,-9.60,0.16,-2.14,9.84
-2.37,-9.59,0.50,9.89,-9.60,0.11,-2.11,9.83
-2.32,-9.61,0.51,9.90,-9.62,0.16,-2.15,9.86
-2.32,-9.60,0.49,9.89,-9.59,0.18,-2.14,9.83
-2.33,-9.61,0.54,9.91,-9.61,0.18,-2.15,9.85
-2.31,-9.63,0.58,9.92,-9.62,0.13,-2.17,9.86
-2.29,-9.60,0.59,9.89,-9.62,0.12,-2.14,9.86
-2.26,-9.59,0.54,9.86,-9.60,0.10,-2.17,9.84
-2.32,-9.56,0.53,9.85,-9.56,0.11,-2.19,9.81
-2.31,-9.57,0.54,9.86,-9.60,0.12,-2.19,9.85
-2.31,-9.62,0.54,9.90,-9.61,0.12,-2.19,9.86
-2.23,-9.59,0.55,9.86,-9.61,0.10,-2.14,9.84
-2.25,-9.64,0.57,9.91,-9.61,0.09,-2.12,9.84
-2.25,-9.63,0.56,9.90,-9.62,0.05,-2.12,9.85
-2.23,-9.62,0.54,9.89,-9.63,0.09,-2.17,9.87
-2.29,-9.60,0.51,9.88,-9.63,0.08,-2.17,9.87
-2.30,-9.61,0.50,9.89,-9.64,0.08,-2.16,9.88
-2.30,-9.64,0.53,9.92,-9.63,0.08,-2.13,9.87
-2.27,-9.64,0.52,9.91,-9.62,0.12,-2.14,9.85
-2.33,-9.63,0.54,9.93,-9.60,0.10,-2.16,9.84
-2.32,-9.61,0.54,9.91,-9.60,0.10,-2.19,9.84
-2.28,-9.61,0.56,9.89,-9.60,0.10,-2.19,9.85
-2.32,-9.60,0.53,9.89,-9.61,0.12,-2.19,9.85
-2.31,-9.61,0.53,9.90,-9.60,0.13,-2.19,9.85
-2.32,-9.60,0.53,9.89,-9.60,0.14,-2.19,9.85
-2.33,-9.59,0.57,9.89,-9.59,0.14,-2.21,9.84
-2.31,-9.57,0.55,9.86,-9.58,0.13,-2.22,9.84
-2.29,-9.57,0.54,9.85,-9.57,0.14,-2.22,9.83
-2.29,-9.59,0.53,9.87,-9.57,0.12,-2.21,9.83
-2.26,-9.64,0.54,9.91,-9.61,0.12,-2.19,9.86
-2.30,-9.62,0.51,9.90,-9.64,0.14,-2.19,9.88
-2.28,-9.65,0.48,9.93,-9.67,0.11,-2.23,9.92
-2.29,-9.63,0.53,9.91,-9.64,0.07,-2.24,9.90
-2.28,-9.64,0.53,9.92,-9.61,0.09,-2.21,9.86
-2.29,-9.66,0.54,9.94,-9.64,0.08,-2.20,9.89
-2.27,-9.63,0.56,9.91,-9.64,0.08,-2.21,9.89
-2.29,-9.67,0.56,9.95,-9.65,0.06,-2.23,9.90
-2.28,-9.67,0.58,9.96,-9.64,0.05,-2.23,9.90
-2.30,-9.66,0.56,9.95,-9.66,0.06,-2.22,9.91
-2.32,-9.64,0.57,9.93,-9.65,0.08,-2.21,9.90
-2.34,-9.67,0.52,9.96,-9.65,0.10,-2.24,9.90
-2.32,-9.67,0.46,9.95,-9.67,0.11,-2.24,9.93
-2.32,-9.67,0.48,9.96,-9.63,0.10,-2.25,9.89
-2.32,-9.65,0.51,9.94,-9.61,0.09,-2.23,9.87
-2.31,-9.66,0.58,9.95,-9.62,0.09,-2.25,9.88
-2.31,-9.61,0.59,9.90,-9.60,0.09,-2.25,9.86
-2.28,-9.61,0.59,9.89,-9.57,0.08,-2.33,9.85
-2.29,-9.60,0.55,9.88,-9.58,0.08,-2.33,9.86
-2.31,-9.62,0.56,9.91,-9.57,0.06,-2.29,9.84
-2.27,-9.62,0.55,9.90,-9.58,0.07,-2.26,9.85
-2.21,-9.58,0.51,9.84,-9.59,0.08,-2.24,9.85
-2.28,-9.62,0.58,9.91,-9.61,0.10,-2.32,9.89
-2.30,-9.71,0.76,10.01,-9.61,0.07,-2.34,9.89
-2.31,-9.63,0.72,9.93,-9.55,0.06,-2.17,9.79
-2.25,-9.48,0.46,9.75,-9.63,0.10,-2.41,9.92
-2.24,-9.69,0.46,9.95,-9.52,0.06,-2.15,9.76
-2.20,-9.64,0.44,9.89,-9.59,0.07,-2.27,9.85
-2.31,-9.70,0.70,9.99,-9.60,0.05,-2.49,9.92
-2.30,-9.64,0.77,9.94,-9.56,0.10,-2.34,9.84
-2.24,-9.55,0.73,9.84,-9.56,0.08,-2.28,9.83
-2.27,-9.51,0.59,9.80,-9.52,0.05,-2.25,9.78
-2.26,-9.57,0.52,9.85,-9.56,0.08,-2.30,9.84
-2.28,-9.62,0.55,9.90,-9.59,0.12,-2.34,9.88
-2.29,-9.67,0.64,9.96,-9.64,0.08,-2.35,9.92
-2.27,-9.66,0.63,9.94,-9.67,0.06,-2.31,9.94
-2.25,-9.69,0.62,9.97,-9.59,0.03,-2.28,9.85
-2.27,-9.67,0.63,9.95,-9.58,0.03,-2.31,9.85
-2.24,-9.66,0.63,9.94,-9.59,0.04,-2.33,9.87
-2.23,-9.60,0.65,9.88,-9.56,0.04,-2.34,9.84
-2.23,-9.58,0.64,9.86,-9.57,0.04,-2.35,9.85
-2.23,-9.58,0.64,9.86,-9.55,0.04,-2.34,9.83
-2.23,-9.59,0.64,9.87,-9.56,0.05,-2.33,9.84
-2.23,-9.62,0.64,9.89,-9.56,0.05,-2.33,9.84
-2.25,-9.60,0.67,9.88,-9.57,0.01,-2.36,9.85
-2.24,-9.61,0.67,9.89,-9.55,0.06,-2.32,9.83
-2.22,-9.63,0.66,9.90,-9.58,0.04,-2.40,9.87
-2.24,-9.61,0.64,9.89,-9.55,0.05,-2.37,9.84
-2.21,-9.61,0.64,9.88,-9.58,0.04,-2.38,9.87
-2.24,-9.62,0.62,9.90,-9.51,0.02,-2.33,9.79
-2.25,-9.65,0.63,9.92,-9.62,0.08,-2.44,9.93
-2.30,-9.64,0.71,9.94,-9.56,0.05,-2.41,9.86
-2.25,-9.60,0.68,9.88,-9.58,0.07,-2.40,9.88
-2.25,-9.62,0.70,9.90,-9.54,0.02,-2.40,9.84
-2.26,-9.59,0.67,9.88,-9.54,0.02,-2.44,9.85
-2.23,-9.58,0.66,9.85,-9.58,0.05,-2.43,9.88
-2.25,-9.60,0.64,9.88,-9.55,0.06,-2.43,9.85
-2.26,-9.61,0.69,9.90,-9.55,0.02,-2.43,9.85
-2.26,-9.62,0.68,9.90,-9.58,0.05,-2.41,9.88
-2.21,-9.61,0.68,9.88,-9.54,0.04,-2.42,9.84
-2.23,-9.63,0.67,9.91,-9.57,0.03,-2.44,9.88
-2.25,-9.65,0.68,9.93,-9.57,0.03,-2.46,9.88
-2.25,-9.64,0.67,9.92,-9.66,0.04,-2.41,9.95
-2.24,-9.63,0.67,9.91,-9.57,-0.12,-2.38,9.87
-2.26,-9.63,0.67,9.92,-9.57,-0.08,-2.44,9.87
-2.24,-9.62,0.70,9.90,-9.53,-0.02,-2.44,9.84
-2.24,-9.63,0.70,9.91,-9.52,0.00,-2.46,9.83
-2.22,-9.62,0.70,9.90,-9.57,-0.01,-2.47,9.88
-2.20,-9.62,0.69,9.90,-9.56,0.02,-2.45,9.86
-2.22,-9.61,0.71,9.89,-9.56,0.02,-2.46,9.87
-2.21,-9.61,0.68,9.88,-9.54,-0.01,-2.49,9.86
-2.26,-9.63,0.71,9.92,-9.55,0.01,-2.48,9.87
-2.22,-9.60,0.72,9.88,-9.55,0.01,-2.48,9.87
-2.22,-9.60,0.72,9.88,-9.56,0.01,-2.51,9.88
-2.21,-9.63,0.72,9.90,-9.54,-0.02,-2.48,9.86
-2.22,-9.60,0.72,9.88,-9.51,0.02,-2.50,9.84
-2.20,-9.61,0.72,9.89,-9.52,-0.00,-2.50,9.84
-2.23,-9.61,0.73,9.89,-9.55,0.03,-2.49,9.87
-2.25,-9.61,0.72,9.90,-9.52,-0.00,-2.48,9.84
-2.22,-9.60,0.73,9.89,-9.53,0.00,-2.47,9.84
-2.22,-9.60,0.74,9.88,-9.53,-0.01,-2.47,9.85
-2.21,-9.60,0.75,9.88,-9.55,0.01,-2.48,9.86
-2.23,-9.61,0.75,9.89,-9.54,-0.02,-2.47,9.86
-2.23,-9.60,0.73,9.88,-9.55,0.01,-2.50,9.87
-2.22,-9.59,0.73,9.87,-9.55,0.02,-2.51,9.88
-2.25,-9.62,0.73,9.90,-9.51,-0.01,-2.50,9.83
-2.23,-9.60,0.72,9.88,-9.52,-0.02,-2.51,9.85
-2.24,-9.62,0.72,9.90,-9.53,-0.03,-2.51,9.85
-2.23,-9.62,0.71,9.91,-9.55,-0.01,-2.53,9.88
-2.25,-9.60,0.73,9.88,-9.52,-0.01,-2.52,9.84
-2.22,-9.58,0.75,9.86,-9.52,-0.00,-2.51,9.85
-2.24,-9.61,0.72,9.90,-9.55,0.02,-2.54,9.88
-2.24,-9.62,0.75,9.91,-9.54,0.02,-2.50,9.86
-2.28,-9.61,0.78,9.91,-9.52,-0.01,-2.52,9.85
-2.23,-9.58,0.73,9.86,-9.54,0.05,-2.52,9.86
-2.26,-9.61,0.75,9.90,-9.54,0.03,-2.54,9.87
-2.33,-9.64,0.76,9.95,-9.53,0.02,-2.64,9.89
-2.25,-9.59,0.86,9.89,-9.49,0.01,-2.48,9.81
-2.30,-9.57,0.88,9.89,-9.49,-0.00,-2.46,9.81
-2.15,-9.54,0.68,9.80,-9.53,-0.01,-2.56,9.87
-2.15,-9.63,0.61,9.89,-9.52,0.00,-2.51,9.85
-2.16,-9.66,0.70,9.92,-9.51,-0.05,-2.62,9.86
-2.21,-9.63,0.79,9.92,-9.46,-0.02,-2.62,9.81
-2.26,-9.62,0.89,9.92,-9.53,0.03,-2.54,9.86
-2.28,-9.55,0.78,9.85,-9.46,0.07,-2.51,9.79
-2.25,-9.56,0.67,9.85,-9.51,0.05,-2.50,9.84
-2.24,-9.63,0.70,9.91,-9.58,0.03,-2.53,9.91
-2.24,-9.69,0.79,9.98,-9.56,0.01,-2.52,9.89
-2.20,-9.62,0.77,9.90,-9.57,0.01,-2.52,9.89
-2.20,-9.64,0.74,9.91,-9.56,-0.02,-2.52,9.88
-2.21,-9.62,0.78,9.90,-9.50,-0.02,-2.51,9.82
-2.20,-9.61,0.81,9.89,-9.49,-0.02,-2.53,9.82
-2.18,-9.58,0.83,9.86,-9.48,-0.00,-2.51,9.81
-2.23,-9.57,0.80,9.86,-9.48,-0.01,-2.49,9.80
-2.21,-9.55,0.79,9.84,-9.50,-0.02,-2.51,9.83
-2.20,-9.58,0.76,9.86,-9.48,-0.01,-2.48,9.80
-2.18,-9.55,0.76,9.82,-9.49,0.01,-2.47,9.80
-2.22,-9.56,0.77,9.85,-9.53,-0.02,-2.48,9.85
-2.20,-9.59,0.76,9.87,-9.51,-0.02,-2.55,9.85
-2.22,-9.59,0.78,9.87,-9.52,-0.01,-2.55,9.86
-2.23,-9.60,0.75,9.88,-9.55,-0.00,-2.51,9.88
-2.21,-9.63,0.72,9.91,-9.57,-0.00,-2.49,9.89
-2.17,-9.60,0.73,9.87,-9.54,0.01,-2.45,9.85
-2.24,-9.66,0.75,9.95,-9.58,0.02,-2.66,9.95
-2.25,-9.67,0.83,9.97,-9.53,0.01,-2.49,9.85
-2.21,-9.62,0.79,9.91,-9.56,0.05,-2.51,9.89
-2.23,-9.60,0.73,9.89,-9.51,-0.01,-2.48,9.83
-2.21,-9.63,0.79,9.91,-9.57,0.04,-2.54,9.90
-2.24,-9.61,0.85,9.90,-9.50,0.05,-2.58,9.85
-2.21,-9.59,0.72,9.87,-9.49,0.04,-2.53,9.82
-2.24,-9.58,0.65,9.86,-9.53,0.01,-2.52,9.85
-2.24,-9.63,0.70,9.91,-9.53,-0.01,-2.52,9.86
-2.22,-9.62,0.70,9.89,-9.53,-0.01,-2.54,9.86
-2.24,-9.60,0.71,9.88,-9.51,-0.00,-2.53,9.85
-2.23,-9.60,0.72,9.88,-9.51,0.01,-2.54,9.84
-2.24,-9.61,0.74,9.89,-9.51,0.01,-2.51,9.83
-2.23,-9.61,0.74,9.89,-9.52,0.00,-2.49,9.84
-2.22,-9.60,0.72,9.88,-9.51,0.01,-2.50,9.83
-2.22,-9.60,0.69,9.88,-9.54,0.01,-2.52,9.87
-2.26,-9.62,0.69,9.90,-9.55,0.04,-2.52,9.87
-2.26,-9.61,0.70,9.90,-9.54,-0.01,-2.52,9.86
-2.25,-9.62,0.70,9.91,-9.56,-0.03,-2.47,9.87
-2.23,-9.63,0.74,9.91,-9.53,-0.00,-2.50,9.85
-2.23,-9.64,0.74,9.92,-9.54,0.01,-2.50,9.86
-2.23,-9.61,0.77,9.90,-9.56,-0.00,-2.50,9.88
-2.24,-9.61,0.79,9.90,-9.53,-0.01,-2.52,9.85
-2.25,-9.62,0.77,9.91,-9.55,0.02,-2.48,9.86
-2.22,-9.58,0.75,9.87,-9.52,-0.01,-2.49,9.84
-2.24,-9.62,0.72,9.90,-9.54,0.01,-2.50,9.86
-2.23,-9.60,0.74,9.88,-9.51,0.01,-2.52,9.84
-2.24,-9.59,0.72,9.87,-9.51,-0.00,-2.47,9.82
-2.23,-9.56,0.80,9.85,-9.52,0.03,-2.51,9.84
-2.24,-9.60,0.70,9.88,-9.51,0.02,-2.49,9.83
-2.23,-9.60,0.73,9.89,-9.53,0.03,-2.50,9.85
-2.24,-9.61,0.75,9.90,-9.52,0.02,-2.43,9.83
-2.23,-9.60,0.67,9.88,-9.55,0.02,-2.48,9.87
-2.27,-9.61,0.74,9.90,-9.55,0.03,-2.45,9.86
-2.25,-9.63,0.70,9.91,-9.54,0.01,-2.49,9.86
-2.25,-9.61,0.66,9.89,-9.56,0.03,-2.44,9.87
-2.27,-9.64,0.68,9.93,-9.60,0.04,-2.47,9.91
-2.30,-9.66,0.70,9.96,-9.55,0.04,-2.50,9.88
-2.25,-9.60,0.63,9.88,-9.57,0.02,-2.45,9.88
-2.31,-9.65,0.67,9.94,-9.56,0.04,-2.50,9.88
-2.38,-9.68,0.78,10.00,-9.57,0.05,-2.58,9.91
-2.31,-9.67,0.88,9.98,-9.52,0.03,-2.42,9.82
-2.26,-9.52,0.72,9.82,-9.50,0.00,-2.36,9.79
-2.21,-9.57,0.55,9.84,-9.56,0.02,-2.55,9.90
-2.24,-9.68,0.61,9.95,-9.53,0.01,-2.38,9.82
-2.22,-9.64,0.65,9.91,-9.57,0.01,-2.48,9.89
-2.31,-9.65,0.79,9.95,-9.53,-0.01,-2.57,9.87
-2.29,-9.61,0.77,9.91,-9.54,0.02,-2.51,9.86
-2.26,-9.53,0.68,9.82,-9.49,0.02,-2.38,9.79
-2.25,-9.56,0.57,9.84,-9.52,0.01,-2.46,9.83
-2.23,-9.60,0.59,9.87,-9.55,0.05,-2.49,9.87
-2.26,-9.65,0.65,9.93,-9.51,0.04,-2.45,9.82
-2.27,-9.63,0.65,9.91,-9.57,0.05,-2.44,9.88
-2.21,-9.64,0.66,9.91,-9.59,0.04,-2.45,9.90
-2.20,-9.65,0.70,9.92,-9.59,0.04,-2.42,9.89
-2.25,-9.64,0.70,9.93,-9.56,0.03,-2.45,9.86
-2.26,-9.62,0.70,9.91,-9.53,0.04,-2.43,9.84
-2.24,-9.61,0.67,9.89,-9.54,0.04,-2.38,9.83
-2.23,-9.62,0.67,9.89,-9.56,0.01,-2.39,9.85
-2.21,-9.63,0.66,9.90,-9.52,0.03,-2.40,9.82
-2.26,-9.63,0.65,9.91,-9.56,0.04,-2.37,9.85
-2.21,-9.63,0.65,9.90,-9.56,0.04,-2.40,9.86
-2.22,-9.62,0.66,9.89,-9.58,0.02,-2.40,9.87
-2.25,-9.64,0.68,9.92,-9.55,0.03,-2.38,9.85
-2.24,-9.63,0.65,9.90,-9.54,0.00,-2.36,9.83
-2.24,-9.62,0.65,9.90,-9.56,0.03,-2.41,9.86
-2.28,-9.62,0.63,9.91,-9.58,0.03,-2.34,9.86
-2.21,-9.64,0.61,9.91,-9.56,0.01,-2.34,9.85
-2.25,-9.68,0.56,9.95,-9.60,0.07,-2.47,9.92
-2.24,-9.74,0.66,10.01,-9.57,0.04,-2.49,9.89
-2.26,-9.68,0.66,9.96,-9.61,0.06,-2.32,9.89
-2.25,-9.67,0.72,9.95,-9.60,0.01,-2.41,9.89
-2.26,-9.63,0.67,9.92,-9.54,0.03,-2.43,9.85
-2.23,-9.60,0.60,9.87,-9.56,0.06,-2.38,9.85
-2.27,-9.62,0.59,9.91,-9.57,0.03,-2.35,9.85
-2.25,-9.65,0.58,9.92,-9.57,0.05,-2.38,9.86
-2.25,-9.65,0.59,9.92,-9.56,0.04,-2.38,9.85
-2.22,-9.64,0.60,9.91,-9.55,0.05,-2.33,9.83
-2.22,-9.63,0.56,9.89,-9.58,0.04,-2.37,9.87
-2.26,-9.63,0.61,9.91,-9.57,0.06,-2.38,9.86
-2.24,-9.60,0.64,9.88,-9.54,0.04,-2.39,9.83
-2.23,-9.61,0.66,9.89,-9.53,0.04,-2.36,9.82
-2.22,-9.60,0.69,9.88,-9.53,0.02,-2.37,9.82
-2.25,-9.59,0.66,9.87,-9.53,0.04,-2.36,9.81
-2.24,-9.61,0.62,9.89,-9.57,0.07,-2.32,9.85
-2.26,-9.62,0.60,9.90,-9.60,0.02,-2.32,9.88
-2.28,-9.64,0.57,9.93,-9.57,0.04,-2.33,9.85
-2.28,-9.68,0.57,9.96,-9.62,0.06,-2.36,9.91
-2.31,-9.68,0.60,9.97,-9.63,0.06,-2.33,9.90
-2.29,-9.67,0.62,9.95,-9.60,0.07,-2.38,9.89
-2.28,-9.68,0.63,9.97,-9.61,0.07,-2.33,9.89
-2.29,-9.64,0.62,9.93,-9.59,0.10,-2.37,9.88
-2.27,-9.60,0.61,9.88,-9.59,0.08,-2.36,9.87
-2.23,-9.62,0.60,9.89,-9.59,0.09,-2.37,9.88
-2.30,-9.62,0.62,9.91,-9.57,0.06,-2.37,9.86
-2.29,-9.62,0.58,9.90,-9.59,0.08,-2.34,9.87
-2.29,-9.64,0.58,9.92,-9.58,0.09,-2.32,9.86
-2.25,-9.61,0.60,9.89,-9.57,0.07,-2.31,9.85
-2.28,-9.63,0.59,9.91,-9.56,0.05,-2.32,9.84
-2.26,-9.64,0.61,9.92,-9.58,0.03,-2.31,9.85
-2.26,-9.62,0.59,9.90,-9.58,0.04,-2.33,9.86
-2.23,-9.63,0.59,9.91,-9.57,0.05,-2.31,9.84
-2.24,-9.62,0.59,9.90,-9.56,0.07,-2.33,9.84
-2.25,-9.64,0.59,9.92,-9.59,0.05,-2.31,9.87
-2.24,-9.66,0.61,9.93,-9.59,0.07,-2.31,9.86
-2.27,-9.61,0.61,9.90,-9.57,0.07,-2.29,9.84
-2.28,-9.65,0.62,9.94,-9.59,0.09,-2.29,9.86
-2.26,-9.62,0.62,9.90,-9.59,0.06,-2.32,9.87
-2.26,-9.62,0.57,9.89,-9.56,0.08,-2.31,9.83
-2.23,-9.62,0.61,9.89,-9.55,0.08,-2.31,9.82
-2.20,-9.59,0.61,9.86,-9.57,0.08,-2.29,9.84
-2.22,-9.59,0.58,9.86,-9.57,0.09,-2.27,9.83
-2.40,-9.67,0.71,9.99,-9.58,0.14,-2.40,9.87
-2.37,-9.64,0.83,9.96,-9.59,0.11,-2.32,9.86
-2.32,-9.53,0.68,9.83,-9.54,0.10,-2.23,9.80
-2.22,-9.60,0.43,9.86,-9.65,0.05,-2.34,9.93
-2.31,-9.67,0.50,9.96,-9.58,0.07,-2.15,9.82
-2.30,-9.71,0.45,9.99,-9.61,0.09,-2.20,9.86
-2.38,-9.74,0.64,10.05,-9.66,0.08,-2.47,9.98
-2.35,-9.71,0.71,10.01,-9.59,0.07,-2.28,9.86
-2.27,-9.56,0.63,9.84,-9.54,0.06,-2.18,9.78
-2.26,-9.58,0.52,9.86,-9.58,0.04,-2.23,9.84
-2.24,-9.61,0.51,9.88,-9.59,0.05,-2.35,9.87
-2.24,-9.63,0.54,9.90,-9.61,0.06,-2.30,9.88
-2.23,-9.65,0.56,9.92,-9.62,0.04,-2.29,9.89
-2.20,-9.70,0.56,9.96,-9.62,0.03,-2.26,9.88
-2.19,-9.76,0.63,10.02,-9.65,0.01,-2.28,9.91
-2.20,-9.67,0.52,9.94,-9.60,0.04,-2.30,9.87
-2.20,-9.67,0.58,9.93,-9.62,0.09,-2.26,9.88
-2.22,-9.63,0.56,9.90,-9.58,0.09,-2.24,9.84
-2.24,-9.62,0.59,9.90,-9.58,0.08,-2.25,9.84
-2.25,-9.61,0.56,9.89,-9.60,0.08,-2.23,9.86
-2.24,-9.62,0.56,9.90,-9.58,0.09,-2.21,9.83
-2.23,-9.62,0.59,9.89,-9.55,0.10,-2.23,9.81
-2.22,-9.62,0.57,9.89,-9.59,0.08,-2.25,9.85
-2.22,-9.62,0.57,9.89,-9.57,0.09,-2.26,9.83
-2.25,-9.63,0.55,9.90,-9.60,0.11,-2.24,9.86
-2.26,-9.66,0.53,9.94,-9.61,0.10,-2.23,9.87
-2.28,-9.66,0.53,9.94,-9.62,0.11,-2.23,9.88
-2.29,-9.69,0.53,9.97,-9.64,0.09,-2.23,9.89
-2.27,-9.66,0.58,9.94,-9.65,0.12,-2.24,9.91
-2.29,-9.64,0.54,9.92,-9.61,0.11,-2.25,9.87
-2.29,-9.72,0.70,10.01,-9.64,0.07,-2.37,9.93
-2.25,-9.67,0.65,9.95,-9.63,0.08,-2.20,9.88
-2.26,-9.61,0.60,9.89,-9.58,0.06,-2.23,9.83
-2.24,-9.62,0.58,9.89,-9.58,0.11,-2.24,9.84
-2.30,-9.57,0.61,9.86,-9.56,0.10,-2.26,9.83
-2.27,-9.60,0.58,9.88,-9.57,0.09,-2.27,9.84
-2.23,-9.58,0.58,9.85,-9.57,0.11,-2.26,9.84
-2.22,-9.60,0.58,9.87,-9.57,0.07,-2.22,9.82
-2.23,-9.61,0.57,9.88,-9.60,0.09,-2.22,9.85
-2.25,-9.63,0.56,9.90,-9.60,0.10,-2.25,9.86
-2.24,-9.64,0.57,9.92,-9.57,0.11,-2.27,9.84
-2.28,-9.63,0.56,9.91,-9.59,0.10,-2.29,9.86
-2.27,-9.60,0.57,9.88,-9.59,0.10,-2.27,9.86
-2.29,-9.61,0.58,9.90,-9.59,0.09,-2.29,9.86
-2.30,-9.61,0.56,9.90,-9.60,0.11,-2.29,9.87
-2.28,-9.63,0.55,9.92,-9.60,0.11,-2.23,9.85
-2.24,-9.63,0.56,9.90,-9.59,0.09,-2.26,9.86
-2.26,-9.64,0.55,9.91,-9.60,0.10,-2.27,9.86
-2.26,-9.64,0.57,9.92,-9.60,0.09,-2.28,9.86
-2.27,-9.65,0.59,9.93,-9.61,0.08,-2.27,9.88
-2.25,-9.65,0.56,9.92,-9.62,0.08,-2.29,9.89
-2.28,-9.63,0.57,9.91,-9.62,0.11,-2.26,9.88
-2.27,-9.63,0.56,9.91,-9.61,0.12,-2.25,9.87
-2.25,-9.63,0.55,9.91,-9.60,0.09,-2.22,9.86
-2.26,-9.66,0.56,9.94,-9.59,0.11,-2.25,9.85
-2.26,-9.65,0.54,9.93,-9.60,0.11,-2.24,9.86
-2.28,-9.65,0.58,9.93,-9.63,0.10,-2.25,9.88
-2.24,-9.62,0.57,9.89,-9.59,0.10,-2.24,9.85
-2.26,-9.63,0.59,9.91,-9.59,0.13,-2.24,9.85
-2.25,-9.63,0.58,9.91,-9.62,0.10,-2.26,9.88
-2.29,-9.62,0.58,9.90,-9.58,0.11,-2.27,9.84
-2.27,-9.61,0.60,9.90,-9.58,0.09,-2.27,9.84
-2.26,-9.62,0.60,9.90,-9.58,0.12,-2.23,9.84
-2.23,-9.60,0.59,9.87,-9.57,0.09,-2.24,9.83
-2.27,-9.62,0.59,9.90,-9.61,0.10,-2.26,9.87
-2.26,-9.65,0.58,9.93,-9.60,0.13,-2.22,9.85
-2.27,-9.61,0.59,9.89,-9.61,0.10,-2.25,9.87
-2.27,-9.64,0.57,9.92,-9.61,0.10,-2.25,9.87
-2.27,-9.65,0.59,9.93,-9.59,0.09,-2.27,9.86
-2.26,-9.62,0.56,9.90,-9.60,0.11,-2.27,9.87
-2.25,-9.62,0.57,9.89,-9.60,0.11,-2.25,9.86
-2.24,-9.63,0.60,9.90,-9.58,0.10,-2.25,9.84
-2.26,-9.61,0.60,9.89,-9.58,0.10,-2.25,9.85
-2.25,-9.62,0.61,9.90,-9.59,0.07,-2.24,9.85
-2.23,-9.63,0.61,9.90,-9.57,0.09,-2.25,9.83
-2.27,-9.63,0.60,9.92,-9.60,0.09,-2.23,9.85
-2.26,-9.64,0.55,9.92,-9.63,0.08,-2.23,9.89
-2.30,-9.66,0.54,9.95,-9.64,0.12,-2.25,9.90
-2.27,-9.66,0.55,9.94,-9.59,0.09,-2.23,9.85
-2.27,-9.65,0.52,9.93,-9.64,0.13,-2.21,9.89
-2.30,-9.68,0.60,9.97,-9.60,0.13,-2.29,9.87
-2.36,-9.74,0.74,10.04,-9.65,0.13,-2.32,9.93
-2.34,-9.63,0.76,9.94,-9.57,0.12,-2.17,9.81
-2.26,-9.48,0.54,9.76,-9.55,0.11,-2.28,9.82
-2.23,-9.68,0.49,9.94,-9.60,0.06,-2.35,9.88
-2.22,-9.66,0.48,9.93,-9.52,0.11,-2.09,9.75
-2.24,-9.67,0.58,9.94,-9.65,0.11,-2.40,9.95
-2.33,-9.70,0.71,10.00,-9.60,0.10,-2.32,9.88
-2.29,-9.58,0.69,9.88,-9.56,0.13,-2.22,9.81
-2.25,-9.55,0.56,9.83,-9.55,0.10,-2.19,9.80
-2.25,-9.56,0.53,9.84,-9.57,0.09,-2.26,9.83
-2.28,-9.58,0.54,9.87,-9.60,0.12,-2.29,9.87
-2.28,-9.62,0.59,9.91,-9.59,0.13,-2.28,9.86
-2.26,-9.64,0.61,9.92,-9.64,0.12,-2.28,9.90
-2.25,-9.68,0.61,9.95,-9.62,0.10,-2.23,9.88
-2.24,-9.66,0.63,9.94,-9.60,0.10,-2.18,9.84
-2.24,-9.63,0.64,9.91,-9.60,0.11,-2.20,9.85
-2.24,-9.64,0.63,9.91,-9.57,0.13,-2.20,9.82
-2.26,-9.59,0.54,9.87,-9.58,0.10,-2.23,9.84
-2.25,-9.62,0.59,9.90,-9.58,0.09,-2.21,9.83
-2.25,-9.61,0.58,9.89,-9.57,0.09,-2.16,9.81
-2.28,-9.60,0.58,9.88,-9.60,0.09,-2.17,9.84
-2.24,-9.63,0.58,9.91,-9.63,0.13,-2.21,9.88
-2.27,-9.64,0.56,9.92,-9.60,0.11,-2.21,9.85
-2.29,-9.64,0.53,9.93,-9.59,0.12,-2.23,9.85
-2.31,-9.65,0.55,9.94,-9.62,0.12,-2.21,9.87
-2.31,-9.64,0.54,9.93,-9.62,0.13,-2.26,9.88
-2.29,-9.66,0.54,9.94,-9.64,0.16,-2.24,9.89
-2.27,-9.65,0.58,9.93,-9.63,0.13,-2.23,9.89
-2.28,-9.62,0.55,9.90,-9.62,0.14,-2.23,9.87
-2.28,-9.68,0.54,9.96,-9.65,0.16,-2.26,9.92
-2.29,-9.69,0.66,9.98,-9.61,0.10,-2.20,9.86
-2.21,-9.63,0.62,9.90,-9.57,0.15,-2.22,9.83
-2.27,-9.57,0.52,9.85,-9.59,0.14,-2.22,9.85
-2.32,-9.59,0.53,9.89,-9.57,0.14,-2.24,9.82
-2.27,-9.60,0.55,9.88,-9.57,0.14,-2.25,9.83
-2.27,-9.60,0.57,9.89,-9.58,0.13,-2.26,9.84
-2.22,-9.59,0.57,9.86,-9.57,0.12,-2.26,9.84
-2.20,-9.60,0.58,9.87,-9.54,0.12,-2.22,9.80
-2.23,-9.62,0.58,9.90,-9.56,0.09,-2.23,9.81
-2.23,-9.62,0.59,9.90,-9.59,0.11,-2.27,9.86
-2.27,-9.66,0.56,9.93,-9.57,0.11,-2.22,9.83
-2.27,-9.61,0.58,9.89,-9.59,0.11,-2.21,9.84
-2.24,-9.64,0.56,9.91,-9.60,0.11,-2.20,9.85
-2.26,-9.65,0.58,9.93,-9.63,0.11,-2.23,9.88
-2.26,-9.65,0.54,9.93,-9.62,0.12,-2.22,9.87
-2.27,-9.65,0.54,9.93,-9.63,0.14,-2.19,9.88
-2.26,-9.64,0.54,9.92,-9.61,0.13,-2.21,9.86
-2.28,-9.64,0.55,9.92,-9.64,0.11,-2.23,9.90
-2.29,-9.66,0.55,9.94,-9.62,0.12,-2.26,9.89
-2.30,-9.64,0.56,9.93,-9.61,0.13,-2.23,9.87
-2.31,-9.62,0.55,9.91,-9.60,0.14,-2.23,9.86
-2.30,-9.63,0.57,9.92,-9.58,0.15,-2.22,9.83
-2.27,-9.63,0.60,9.91,-9.57,0.14,-2.25,9.83
-2.32,-9.61,0.60,9.91,-9.58,0.15,-2.23,9.84
-2.26,-9.62,0.58,9.90,-9.59,0.14,-2.21,9.85
-2.30,-9.60,0.58,9.89,-9.59,0.15,-2.20,9.84
-2.30,-9.61,0.57,9.90,-9.60,0.15,-2.18,9.84
-2.27,-9.64,0.58,9.92,-9.61,0.11,-2.23,9.86
-2.30,-9.62,0.59,9.90,-9.60,0.11,-2.26,9.86
-2.31,-9.61,0.56,9.90,-9.58,0.10,-2.24,9.83
-2.29,-9.61,0.58,9.89,-9.60,0.12,-2.21,9.86
-2.27,-9.62,0.59,9.90,-9.60,0.11,-2.22,9.85
-2.25,-9.63,0.57,9.90,-9.59,0.14,-2.22,9.84
-2.29,-9.63,0.59,9.92,-9.62,0.10,-2.22,9.87
-2.26,-9.62,0.58,9.90,-9.59,0.12,-2.22,9.85
-2.25,-9.64,0.60,9.92,-9.62,0.13,-2.22,9.88
-2.26,-9.62,0.60,9.90,-9.61,0.11,-2.20,9.86
-2.27,-9.63,0.58,9.91,-9.63,0.13,-2.19,9.88
-2.29,-9.63,0.56,9.92,-9.61,0.13,-2.21,9.86
-2.29,-9.68,0.56,9.96,-9.61,0.14,-2.23,9.86
-2.29,-9.66,0.56,9.94,-9.64,0.12,-2.23,9.89
-2.30,-9.64,0.56,9.92,-9.59,0.15,-2.23,9.85
-2.28,-9.67,0.57,9.95,-9.62,0.13,-2.24,9.88
-2.28,-9.64,0.54,9.92,-9.61,0.16,-2.24,9.87
-2.30,-9.62,0.55,9.91,-9.60,0.11,-2.23,9.86
-2.31,-9.63,0.56,9.92,-9.58,0.15,-2.25,9.84
-2.31,-9.63,0.60,9.92,-9.58,0.11,-2.28,9.84
-2.28,-9.64,0.61,9.92,-9.60,0.16,-2.21,9.85
-2.30,-9.61,0.59,9.90,-9.58,0.12,-2.24,9.84
-2.27,-9.63,0.61,9.91,-9.59,0.13,-2.18,9.83
-2.29,-9.62,0.55,9.91,-9.62,0.09,-2.24,9.88
-2.30,-9.63,0.56,9.92,-9.58,0.13,-2.26,9.84
-2.26,-9.65,0.55,9.93,-9.60,0.11,-2.26,9.87
-2.28,-9.63,0.56,9.91,-9.59,0.12,-2.26,9.85
-2.25,-9.65,0.54,9.92,-9.63,0.15,-2.25,9.89
-2.34,-9.69,0.69,9.99,-9.60,0.14,-2.30,9.87
-2.32,-9.61,0.73,9.92,-9.58,0.12,-2.19,9.83
-2.27,-9.52,0.58,9.81,-9.54,0.12,-2.22,9.80
-2.20,-9.56,0.38,9.82,-9.61,0.08,-2.28,9.87
-2.29,-9.68,0.49,9.96,-9.53,0.11,-2.09,9.76
-2.27,-9.66,0.53,9.93,-9.63,0.10,-2.34,9.91
-2.35,-9.66,0.68,9.97,-9.59,0.14,-2.29,9.86
-2.33,-9.57,0.66,9.87,-9.61,0.14,-2.20,9.86
-2.33,-9.52,0.59,9.82,-9.59,0.10,-2.23,9.84
-2.31,-9.57,0.53,9.86,-9.58,0.16,-2.25,9.84
-2.34,-9.63,0.55,9.93,-9.61,0.12,-2.25,9.87
-2.33,-9.62,0.56,9.92,-9.65,0.17,-2.22,9.90
-2.31,-9.67,0.58,9.96,-9.69,0.13,-2.18,9.93
-2.30,-9.71,0.56,9.99,-9.67,0.13,-2.19,9.91
-2.36,-9.70,0.60,10.00,-9.67,0.14,-2.22,9.92
-2.35,-9.67,0.60,9.97,-9.65,0.17,-2.20,9.90
-2.33,-9.62,0.60,9.92,-9.61,0.16,-2.21,9.86
-2.32,-9.61,0.58,9.91,-9.58,0.12,-2.18,9.83
-2.30,-9.61,0.58,9.90,-9.58,0.14,-2.21,9.84
-2.28,-9.57,0.61,9.85,-9.56,0.11,-2.20,9.81
-2.24,-9.56,0.60,9.84,-9.55,0.11,-2.23,9.81
-2.23,-9.57,0.60,9.84,-9.55,0.14,-2.21,9.80
-2.22,-9.56,0.60,9.83,-9.56,0.12,-2.22,9.81
-2.21,-9.59,0.58,9.86,-9.57,0.11,-2.22,9.83
-2.27,-9.59,0.57,9.87,-9.56,0.10,-2.25,9.82
-2.29,-9.61,0.55,9.90,-9.62,0.13,-2.21,9.87
-2.29,-9.63,0.56,9.91,-9.61,0.15,-2.22,9.86
-2.27,-9.66,0.53,9.93,-9.62,0.14,-2.20,9.87
-2.29,-9.64,0.49,9.92,-9.60,0.16,-2.23,9.86
-2.30,-9.66,0.62,9.95,-9.62,0.17,-2.26,9.89
-2.31,-9.66,0.64,9.96,-9.67,0.17,-2.20,9.92
-2.27,-9.64,0.64,9.92,-9.59,0.14,-2.20,9.84
-2.30,-9.61,0.64,9.90,-9.57,0.10,-2.24,9.83
-2.30,-9.57,0.55,9.86,-9.57,0.13,-2.24,9.83
-2.32,-9.58,0.55,9.87,-9.58,0.11,-2.24,9.84
-2.33,-9.60,0.57,9.89,-9.57,0.14,-2.24,9.83
-2.24,-9.57,0.56,9.85,-9.59,0.13,-2.22,9.84
-2.26,-9.63,0.56,9.91,-9.58,0.12,-2.22,9.83
-2.30,-9.63,0.57,9.92,-9.60,0.10,-2.19,9.85
-2.32,-9.63,0.56,9.92,-9.63,0.13,-2.22,9.88
-2.27,-9.66,0.54,9.94,-9.58,0.12,-2.28,9.85
-2.30,-9.61,0.57,9.89,-9.61,0.13,-2.28,9.88
-2.32,-9.63,0.56,9.92,-9.61,0.14,-2.24,9.87
-2.27,-9.63,0.53,9.91,-9.60,0.11,-2.28,9.87
-2.29,-9.64,0.55,9.93,-9.59,0.13,-2.26,9.85
-2.30,-9.64,0.53,9.93,-9.63,0.12,-2.27,9.89
-2.25,-9.65,0.53,9.92,-9.62,0.13,-2.23,9.87
-2.27,-9.63,0.55,9.91,-9.64,0.11,-2.26,9.91
-2.30,-9.63,0.57,9.92,-9.61,0.12,-2.28,9.88
-2.32,-9.67,0.59,9.96,-9.61,0.12,-2.25,9.87
-2.33,-9.63,0.57,9.92,-9.61,0.09,-2.26,9.87
-2.29,-9.64,0.62,9.93,-9.61,0.13,-2.26,9.88
-2.32,-9.64,0.60,9.93,-9.63,0.14,-2.25,9.89
-2.30,-9.62,0.61,9.91,-9.60,0.15,-2.26,9.87
-2.29,-9.61,0.57,9.89,-9.56,0.13,-2.25,9.82
-2.32,-9.61,0.57,9.90,-9.58,0.14,-2.23,9.84
-2.29,-9.64,0.56,9.93,-9.60,0.13,-2.25,9.86
-2.31,-9.63,0.56,9.92,-9.60,0.11,-2.27,9.87
-2.32,-9.64,0.58,9.93,-9.61,0.13,-2.25,9.87
-2.37,-9.62,0.55,9.92,-9.60,0.11,-2.26,9.87
-2.31,-9.64,0.56,9.93,-9.60,0.13,-2.28,9.87
-2.29,-9.62,0.52,9.90,-9.59,0.13,-2.27,9.86
-2.26,-9.66,0.58,9.93,-9.63,0.10,-2.26,9.89
-2.29,-9.64,0.58,9.93,-9.60,0.12,-2.29,9.87
-2.27,-9.66,0.59,9.94,-9.60,0.09,-2.27,9.86
-2.25,-9.65,0.56,9.92,-9.59,0.11,-2.29,9.86
-2.26,-9.63,0.58,9.90,-9.60,0.14,-2.27,9.87
-2.27,-9.63,0.56,9.91,-9.59,0.13,-2.32,9.87
-2.27,-9.63,0.56,9.91,-9.58,0.13,-2.30,9.86
-2.30,-9.63,0.55,9.92,-9.60,0.13,-2.31,9.87
-2.31,-9.61,0.56,9.90,-9.55,0.12,-2.32,9.83
-2.29,-9.60,0.53,9.88,-9.57,0.13,-2.33,9.85
-2.28,-9.63,0.53,9.90,-9.58,0.10,-2.33,9.86
-2.29,-9.62,0.53,9.90,-9.58,0.12,-2.32,9.86
-2.26,-9.61,0.52,9.88,-9.58,0.14,-2.33,9.86
-2.29,-9.61,0.59,9.90,-9.60,0.10,-2.29,9.87
-2.28,-9.60,0.62,9.88,-9.59,0.10,-2.30,9.86
-2.27,-9.65,0.62,9.93,-9.59,0.09,-2.30,9.86
-2.29,-9.61,0.61,9.90,-9.57,0.10,-2.35,9.86
-2.32,-9.59,0.60,9.89,-9.57,0.09,-2.33,9.85
-2.31,-9.63,0.58,9.92,-9.56,0.10,-2.30,9.84
-2.28,-9.63,0.59,9.92,-9.55,0.11,-2.32,9.83
-2.29,-9.62,0.55,9.91,-9.59,0.10,-2.30,9.87
-2.25,-9.62,0.57,9.89,-9.57,0.10,-2.35,9.86
-2.32,-9.68,0.60,9.98,-9.65,0.13,-2.40,9.94
-2.32,-9.70,0.78,10.00,-9.60,0.11,-2.38,9.89
-2.29,-9.54,0.66,9.83,-9.51,0.09,-2.21,9.77
-2.27,-9.53,0.44,9.81,-9.61,0.11,-2.51,9.93
-2.28,-9.69,0.52,9.97,-9.49,0.09,-2.26,9.75
-2.26,-9.59,0.53,9.87,-9.56,0.12,-2.32,9.84
-2.29,-9.61,0.73,9.90,-9.59,0.09,-2.56,9.92
-2.31,-9.58,0.72,9.88,-9.53,0.11,-2.34,9.81
-2.31,-9.54,0.65,9.84,-9.54,0.09,-2.37,9.83
-2.28,-9.56,0.57,9.84,-9.55,0.10,-2.30,9.82
-2.34,-9.61,0.52,9.91,-9.58,0.16,-2.35,9.87
-2.33,-9.66,0.60,9.95,-9.60,0.15,-2.35,9.88
-2.29,-9.69,0.60,9.98,-9.65,0.14,-2.41,9.94
-2.26,-9.71,0.57,9.99,-9.63,0.10,-2.39,9.92
-2.24,-9.71,0.63,9.98,-9.60,0.10,-2.40,9.89
-2.27,-9.67,0.67,9.95,-9.55,0.10,-2.41,9.85
-2.27,-9.60,0.68,9.89,-9.53,0.10,-2.43,9.84
-2.24,-9.60,0.70,9.88,-9.52,0.09,-2.43,9.83
-2.27,-9.59,0.62,9.87,-9.53,0.10,-2.41,9.83
-2.20,-9.58,0.64,9.85,-9.53,0.08,-2.40,9.83
-2.23,-9.57,0.63,9.85,-9.54,0.09,-2.39,9.83
-2.26,-9.59,0.64,9.87,-9.54,0.10,-2.38,9.84
-2.26,-9.59,0.66,9.88,-9.56,0.08,-2.39,9.85
-2.28,-9.63,0.65,9.92,-9.57,0.08,-2.40,9.86
-2.28,-9.63,0.67,9.92,-9.54,0.08,-2.43,9.85
-2.30,-9.63,0.68,9.92,-9.58,0.08,-2.40,9.88
-2.29,-9.63,0.64,9.92,-9.57,0.11,-2.41,9.87
-2.23,-9.65,0.63,9.92,-9.61,0.08,-2.43,9.92
-2.28,-9.64,0.59,9.92,-9.54,0.09,-2.39,9.84
-2.32,-9.67,0.67,9.96,-9.61,0.10,-2.55,9.94
-2.28,-9.65,0.71,9.94,-9.59,0.10,-2.37,9.88
-2.27,-9.59,0.64,9.88,-9.55,0.08,-2.43,9.86
-2.28,-9.61,0.68,9.90,-9.54,0.10,-2.44,9.85
-2.29,-9.58,0.72,9.88,-9.52,0.09,-2.46,9.83
-2.28,-9.58,0.65,9.87,-9.57,0.06,-2.47,9.88
-2.26,-9.60,0.63,9.88,-9.53,0.06,-2.43,9.84
-2.22,-9.61,0.66,9.89,-9.54,0.09,-2.42,9.85
-2.28,-9.62,0.66,9.90,-9.56,0.08,-2.47,9.87
-2.25,-9.60,0.67,9.88,-9.51,0.09,-2.47,9.83
-2.27,-9.61,0.64,9.90,-9.53,0.09,-2.45,9.84
-2.26,-9.61,0.68,9.90,-9.48,0.08,-2.49,9.80
-2.24,-9.63,0.68,9.91,-9.52,0.09,-2.49,9.84
-2.26,-9.61,0.66,9.90,-9.51,0.07,-2.46,9.83
-2.25,-9.59,0.67,9.88,-9.52,0.06,-2.53,9.85
-2.23,-9.58,0.70,9.86,-9.52,0.08,-2.50,9.85
-2.25,-9.59,0.69,9.87,-9.51,0.06,-2.49,9.83
-2.22,-9.60,0.69,9.88,-9.55,0.08,-2.50,9.87
-2.26,-9.61,0.71,9.90,-9.53,0.03,-2.46,9.84
-2.26,-9.60,0.70,9.89,-9.54,0.07,-2.49,9.86
-2.22,-9.64,0.71,9.92,-9.58,0.07,-2.50,9.90
-2.27,-9.64,0.70,9.93,-9.54,0.07,-2.48,9.86
-2.26,-9.61,0.69,9.90,-9.56,0.05,-2.48,9.88
-2.30,-9.61,0.69,9.90,-9.55,0.08,-2.51,9.87
-2.26,-9.62,0.71,9.91,-9.54,0.08,-2.50,9.86
-2.26,-9.61,0.71,9.90,-9.52,0.09,-2.51,9.85
-2.27,-9.58,0.71,9.87,-9.54,0.09,-2.49,9.86
-2.26,-9.58,0.72,9.87,-9.50,0.07,-2.52,9.83
-2.25,-9.59,0.72,9.88,-9.54,0.08,-2.52,9.86
-2.26,-9.58,0.74,9.87,-9.51,0.04,-2.47,9.82
-2.28,-9.61,0.73,9.90,-9.51,0.06,-2.49,9.83
-2.25,-9.63,0.71,9.92,-9.54,0.06,-2.36,9.83
-2.24,-9.60,0.73,9.88,-9.50,0.06,-2.44,9.81
-2.27,-9.63,0.69,9.91,-9.52,0.02,-2.57,9.86
-2.28,-9.62,0.72,9.91,-9.56,0.04,-2.54,9.89
-2.25,-9.60,0.73,9.89,-9.52,0.06,-2.51,9.85
-2.28,-9.60,0.74,9.89,-9.54,0.05,-2.54,9.87
-2.26,-9.61,0.73,9.90,-9.50,0.06,-2.57,9.84
-2.26,-9.61,0.73,9.90,-9.53,0.09,-2.57,9.87
-2.26,-9.58,0.70,9.87,-9.51,0.04,-2.56,9.85
-2.26,-9.58,0.73,9.87,-9.51,0.07,-2.53,9.84
-2.25,-9.56,0.71,9.84,-9.50,0.06,-2.50,9.82
-2.23,-9.57,0.68,9.85,-9.54,0.05,-2.48,9.86
-2.26,-9.64,0.70,9.93,-9.51,0.06,-2.54,9.84
-2.32,-9.65,0.80,9.96,-9.52,0.07,-2.59,9.87
-2.29,-9.62,0.81,9.92,-9.50,0.07,-2.40,9.80
-2.30,-9.56,0.81,9.87,-9.51,0.06,-2.50,9.83
-2.23,-9.54,0.68,9.82,-9.53,0.08,-2.48,9.85
-2.17,-9.59,0.63,9.86,-9.54,0.05,-2.51,9.86
-2.20,-9.63,0.67,9.90,-9.54,0.04,-2.55,9.88
-2.30,-9.61,0.79,9.91,-9.49,0.05,-2.62,9.84
-2.32,-9.60,0.90,9.92,-9.47,0.07,-2.51,9.80
-2.30,-9.56,0.75,9.86,-9.51,0.14,-2.50,9.83
-2.28,-9.57,0.66,9.86,-9.52,0.09,-2.48,9.84
-2.27,-9.70,0.65,9.99,-9.60,0.08,-2.48,9.92
-2.25,-9.70,0.74,9.98,-9.60,0.08,-2.47,9.91
-2.21,-9.66,0.73,9.93,-9.59,0.05,-2.49,9.91
-2.22,-9.67,0.72,9.95,-9.59,0.01,-2.49,9.91
-2.23,-9.64,0.73,9.92,-9.55,0.05,-2.49,9.87
-2.28,-9.60,0.80,9.90,-9.54,0.06,-2.48,9.86
-2.26,-9.60,0.76,9.89,-9.52,0.06,-2.49,9.84
-2.26,-9.59,0.73,9.87,-9.50,0.07,-2.49,9.82
-2.21,-9.56,0.74,9.84,-9.48,0.06,-2.47,9.80
-2.23,-9.56,0.74,9.85,-9.51,0.05,-2.46,9.82
-2.23,-9.55,0.71,9.84,-9.49,0.05,-2.47,9.81
-2.25,-9.56,0.71,9.84,-9.49,0.04,-2.48,9.81
-2.26,-9.56,0.75,9.85,-9.52,0.06,-2.51,9.85
-2.26,-9.56,0.75,9.85,-9.51,0.08,-2.49,9.83
-2.30,-9.60,0.75,9.90,-9.54,0.04,-2.51,9.86
-2.28,-9.61,0.70,9.90,-9.55,0.06,-2.48,9.87
-2.21,-9.63,0.69,9.90,-9.54,0.04,-2.47,9.85
-2.29,-9.62,0.68,9.91,-9.57,0.05,-2.60,9.92
-2.26,-9.68,0.75,9.96,-9.53,0.02,-2.54,9.87
-2.24,-9.60,0.77,9.89,-9.57,0.08,-2.43,9.88
-2.23,-9.61,0.71,9.89,-9.53,0.05,-2.48,9.85
-2.26,-9.61,0.71,9.90,-9.54,0.06,-2.51,9.86
-2.30,-9.64,0.84,9.94,-9.56,0.09,-2.49,9.88
-2.26,-9.58,0.79,9.87,-9.54,0.06,-2.47,9.85
-2.24,-9.58,0.62,9.86,-9.55,0.07,-2.44,9.86
-2.28,-9.64,0.63,9.93,-9.54,0.06,-2.48,9.86
-2.26,-9.63,0.67,9.92,-9.56,0.06,-2.49,9.88
-2.22,-9.60,0.67,9.88,-9.50,0.05,-2.51,9.83
-2.24,-9.61,0.69,9.89,-9.50,0.04,-2.55,9.84
-2.24,-9.58,0.74,9.86,-9.49,0.06,-2.52,9.82
-2.21,-9.60,0.73,9.87,-9.50,0.05,-2.52,9.83
-2.25,-9.59,0.71,9.88,-9.49,0.06,-2.49,9.81
-2.21,-9.60,0.72,9.88,-9.52,0.04,-2.54,9.86
-2.22,-9.60,0.73,9.89,-9.54,0.06,-2.52,9.87
-2.24,-9.61,0.71,9.90,-9.54,0.06,-2.46,9.85
-2.23,-9.62,0.71,9.90,-9.54,0.05,-2.48,9.86
-2.25,-9.63,0.70,9.91,-9.57,0.04,-2.47,9.89
-2.23,-9.66,0.72,9.94,-9.55,0.04,-2.50,9.87
-2.26,-9.61,0.72,9.90,-9.58,0.01,-2.50,9.90
-2.22,-9.62,0.72,9.90,-9.54,0.07,-2.50,9.87
-2.24,-9.62,0.72,9.90,-9.52,0.04,-2.48,9.84
-2.21,-9.60,0.72,9.88,-9.51,0.04,-2.47,9.83
-2.24,-9.61,0.70,9.89,-9.52,0.03,-2.46,9.83
-2.23,-9.59,0.71,9.87,-9.49,0.01,-2.47,9.81
-2.23,-9.60,0.73,9.88,-9.52,0.06,-2.47,9.83
-2.23,-9.65,0.75,9.94,-9.54,0.08,-2.48,9.86
-2.23,-9.61,0.77,9.90,-9.50,0.05,-2.45,9.81
-2.26,-9.63,0.75,9.91,-9.54,0.05,-2.45,9.85
-2.24,-9.58,0.71,9.87,-9.56,0.04,-2.46,9.87
-2.25,-9.62,0.71,9.91,-9.52,0.07,-2.49,9.84
-2.24,-9.58,0.73,9.87,-9.51,0.06,-2.49,9.83
-2.26,-9.62,0.74,9.91,-9.54,0.07,-2.46,9.85
-2.22,-9.62,0.72,9.90,-9.53,0.06,-2.48,9.85
-2.25,-9.61,0.68,9.90,-9.54,0.06,-2.49,9.86
-2.31,-9.67,0.74,9.97,-9.57,0.07,-2.51,9.90
-2.32,-9.68,0.88,10.00,-9.60,0.08,-2.55,9.93
-2.29,-9.59,0.80,9.89,-9.52,0.06,-2.35,9.80
-2.21,-9.51,0.72,9.78,-9.55,0.01,-2.53,9.88
-2.23,-9.64,0.61,9.91,-9.56,0.03,-2.48,9.88
-2.20,-9.66,0.75,9.94,-9.55,0.06,-2.42,9.86
-2.20,-9.62,0.80,9.90,-9.52,0.03,-2.57,9.87
-2.29,-9.63,0.86,9.93,-9.48,0.06,-2.55,9.81
-2.33,-9.57,0.84,9.88,-9.51,0.08,-2.50,9.84
-2.24,-9.52,0.73,9.81,-9.50,0.12,-2.39,9.80
-2.26,-9.55,0.66,9.84,-9.52,0.07,-2.52,9.84
-2.25,-9.62,0.71,9.90,-9.52,0.04,-2.50,9.84
-2.21,-9.64,0.75,9.91,-9.58,0.07,-2.45,9.88
-2.24,-9.62,0.71,9.90,-9.58,0.03,-2.50,9.90
-2.25,-9.65,0.70,9.94,-9.57,0.04,-2.46,9.88
-2.26,-9.65,0.71,9.94,-9.60,0.04,-2.46,9.90
-2.23,-9.66,0.71,9.94,-9.55,0.07,-2.46,9.86
-2.28,-9.64,0.66,9.93,-9.58,0.08,-2.44,9.89
-2.29,-9.65,0.69,9.94,-9.56,0.08,-2.43,9.87
-2.30,-9.63,0.70,9.92,-9.56,0.07,-2.43,9.87
-2.30,-9.59,0.69,9.89,-9.54,0.07,-2.44,9.85
-2.28,-9.62,0.70,9.91,-9.55,0.08,-2.44,9.85
-2.31,-9.60,0.73,9.90,-9.56,0.08,-2.43,9.86
-2.26,-9.63,0.74,9.92,-9.55,0.04,-2.45,9.86
-2.29,-9.60,0.73,9.90,-9.56,0.06,-2.47,9.88
-2.30,-9.60,0.74,9.90,-9.55,0.08,-2.45,9.86
-2.29,-9.63,0.73,9.92,-9.54,0.07,-2.44,9.84
-2.27,-9.61,0.70,9.90,-9.55,0.06,-2.46,9.86
-2.24,-9.60,0.69,9.88,-9.55,0.07,-2.40,9.85
-2.29,-9.63,0.65,9.92,-9.57,0.07,-2.56,9.91
-2.29,-9.66,0.75,9.96,-9.53,0.07,-2.46,9.84
-2.25,-9.65,0.78,9.94,-9.57,0.08,-2.43,9.87
-2.27,-9.64,0.79,9.94,-9.53,0.04,-2.45,9.84
-2.24,-9.60,0.79,9.89,-9.52,0.05,-2.50,9.84
-2.27,-9.56,0.70,9.85,-9.49,0.07,-2.48,9.81
-2.26,-9.57,0.66,9.86,-9.53,0.07,-2.42,9.83
-2.23,-9.60,0.70,9.88,-9.52,0.06,-2.44,9.82
-2.23,-9.60,0.69,9.88,-9.53,0.09,-2.43,9.84
-2.23,-9.63,0.70,9.91,-9.56,0.09,-2.44,9.86
-2.24,-9.61,0.70,9.89,-9.54,0.08,-2.41,9.84
-2.26,-9.61,0.69,9.90,-9.56,0.07,-2.46,9.87
-2.26,-9.63,0.69,9.91,-9.57,0.08,-2.43,9.87
-2.29,-9.64,0.71,9.93,-9.55,0.09,-2.41,9.85
-2.28,-9.63,0.72,9.93,-9.53,0.05,-2.41,9.83
-2.30,-9.61,0.71,9.90,-9.53,0.10,-2.37,9.82
-2.24,-9.62,0.67,9.90,-9.54,0.09,-2.36,9.83
-2.23,-9.63,0.65,9.90,-9.54,0.09,-2.29,9.82
-2.24,-9.64,0.66,9.92,-9.59,0.09,-2.39,9.89
-2.25,-9.65,0.66,9.93,-9.59,0.08,-2.42,9.89
-2.29,-9.68,0.66,9.97,-9.61,0.08,-2.41,9.91
-2.26,-9.69,0.68,9.97,-9.60,0.08,-2.41,9.90
-2.31,-9.63,0.70,9.93,-9.58,0.13,-2.42,9.88
-2.29,-9.63,0.68,9.92,-9.56,0.11,-2.43,9.87
-2.30,-9.62,0.68,9.92,-9.54,0.12,-2.41,9.84
-2.26,-9.57,0.67,9.86,-9.57,0.10,-2.42,9.87
-2.25,-9.60,0.69,9.88,-9.56,0.08,-2.41,9.86
-2.26,-9.57,0.69,9.85,-9.53,0.09,-2.42,9.83
-2.25,-9.58,0.65,9.86,-9.57,0.09,-2.42,9.87
-2.26,-9.58,0.64,9.86,-9.57,0.07,-2.39,9.86
-2.27,-9.60,0.65,9.89,-9.57,0.11,-2.37,9.86
-2.26,-9.61,0.67,9.90,-9.56,0.05,-2.35,9.85
-2.26,-9.63,0.68,9.91,-9.57,0.07,-2.39,9.86
-2.25,-9.62,0.65,9.90,-9.55,0.06,-2.37,9.84
-2.24,-9.64,0.66,9.91,-9.55,0.04,-2.38,9.84
-2.26,-9.60,0.66,9.89,-9.57,0.07,-2.35,9.86
-2.25,-9.63,0.69,9.91,-9.58,0.08,-2.33,9.86
-2.21,-9.58,0.62,9.85,-9.58,0.07,-2.32,9.86
-2.27,-9.66,0.64,9.95,-9.58,0.09,-2.34,9.86
-2.34,-9.72,0.79,10.03,-9.64,0.09,-2.40,9.93
-2.33,-9.67,0.83,9.98,-9.58,0.12,-2.24,9.84
-2.27,-9.53,0.61,9.81,-9.57,0.10,-2.29,9.85
-2.20,-9.66,0.52,9.92,-9.63,0.08,-2.39,9.93
-2.21,-9.71,0.57,9.97,-9.57,0.08,-2.16,9.81
-2.23,-9.70,0.55,9.97,-9.63,0.10,-2.37,9.91
-2.36,-9.75,0.75,10.06,-9.60,0.09,-2.43,9.90
-2.29,-9.64,0.75,9.94,-9.54,0.09,-2.32,9.82
-2.25,-9.55,0.66,9.83,-9.54,0.06,-2.25,9.80
-2.23,-9.56,0.56,9.83,-9.55,0.08,-2.33,9.83
-2.27,-9.55,0.56,9.84,-9.55,0.10,-2.37,9.84
-2.29,-9.57,0.59,9.86,-9.59,0.12,-2.32,9.87
-2.27,-9.66,0.60,9.94,-9.63,0.08,-2.28,9.90
-2.23,-9.73,0.63,10.01,-9.64,0.08,-2.26,9.90
-2.21,-9.68,0.56,9.95,-9.60,0.05,-2.27,9.87
-2.23,-9.68,0.62,9.95,-9.60,0.05,-2.27,9.87
-2.24,-9.68,0.64,9.95,-9.60,0.09,-2.26,9.87
-2.25,-9.63,0.65,9.91,-9.59,0.09,-2.25,9.85
-2.24,-9.64,0.62,9.92,-9.60,0.07,-2.27,9.86
-2.24,-9.60,0.63,9.88,-9.55,0.09,-2.24,9.81
-2.26,-9.62,0.62,9.90,-9.57,0.08,-2.23,9.83
-2.22,-9.59,0.64,9.87,-9.59,0.09,-2.25,9.85
-2.24,-9.59,0.61,9.87,-9.56,0.11,-2.26,9.83
-2.26,-9.62,0.60,9.90,-9.56,0.08,-2.25,9.82
-2.25,-9.61,0.60,9.89,-9.57,0.12,-2.24,9.83
-2.25,-9.65,0.59,9.92,-9.62,0.11,-2.27,9.88
-2.28,-9.65,0.60,9.93,-9.58,0.12,-2.24,9.84
-2.30,-9.66,0.59,9.95,-9.66,0.08,-2.26,9.92
-2.24,-9.68,0.62,9.95,-9.63,0.10,-2.26,9.89
-2.26,-9.61,0.50,9.89,-9.62,0.14,-2.27,9.88
-2.31,-9.67,0.66,9.96,-9.62,0.12,-2.37,9.91
-2.26,-9.68,0.65,9.96,-9.62,0.10,-2.21,9.87
-2.22,-9.60,0.59,9.88,-9.56,0.08,-2.26,9.82
-2.28,-9.62,0.58,9.90,-9.60,0.07,-2.30,9.87
-2.25,-9.59,0.60,9.87,-9.56,0.08,-2.27,9.83
-2.31,-9.62,0.61,9.91,-9.59,0.13,-2.32,9.87
-2.25,-9.60,0.60,9.88,-9.56,0.13,-2.23,9.82
-2.23,-9.62,0.57,9.89,-9.59,0.10,-2.24,9.85
-2.22,-9.61,0.58,9.88,-9.59,0.12,-2.22,9.85
-2.22,-9.65,0.58,9.92,-9.61,0.09,-2.24,9.87
-2.23,-9.67,0.59,9.94,-9.61,0.10,-2.25,9.87
-2.27,-9.67,0.57,9.95,-9.61,0.08,-2.30,9.88
-2.26,-9.65,0.62,9.93,-9.62,0.10,-2.26,9.89
-2.28,-9.63,0.64,9.91,-9.59,0.09,-2.26,9.85
-2.30,-9.62,0.66,9.91,-9.61,0.11,-2.27,9.87
-2.25,-9.62,0.62,9.90,-9.61,0.09,-2.22,9.86
-2.26,-9.62,0.62,9.90,-9.59,0.09,-2.24,9.85
-2.28,-9.64,0.61,9.93,-9.59,0.08,-2.25,9.85
-2.26,-9.61,0.59,9.88,-9.61,0.08,-2.24,9.87
-2.24,-9.63,0.61,9.90,-9.60,0.10,-2.25,9.87
-2.26,-9.65,0.57,9.93,-9.61,0.08,-2.25,9.87
-2.24,-9.64,0.61,9.92,-9.63,0.07,-2.23,9.89
-2.24,-9.63,0.60,9.91,-9.60,0.11,-2.23,9.86
-2.25,-9.64,0.62,9.92,-9.60,0.13,-2.22,9.85
-2.26,-9.62,0.62,9.90,-9.58,0.09,-2.22,9.83
-2.30,-9.60,0.62,9.89,-9.57,0.08,-2.23,9.82
-2.26,-9.59,0.64,9.88,-9.57,0.08,-2.25,9.83
-2.27,-9.60,0.62,9.89,-9.58,0.10,-2.22,9.83
-2.26,-9.61,0.63,9.89,-9.61,0.11,-2.23,9.87
-2.24,-9.60,0.60,9.88,-9.58,0.10,-2.28,9.85
-2.25,-9.64,0.56,9.91,-9.61,0.10,-2.26,9.87
-2.27,-9.67,0.52,9.95,-9.61,0.10,-2.26,9.88
-2.28,-9.67,0.52,9.95,-9.65,0.08,-2.23,9.90
-2.29,-9.69,0.53,9.97,-9.65,0.10,-2.25,9.91
-2.25,-9.68,0.54,9.95,-9.63,0.09,-2.27,9.89
-2.26,-9.65,0.60,9.93,-9.60,0.09,-2.30,9.87
-2.27,-9.61,0.59,9.89,-9.57,0.11,-2.31,9.84
-2.27,-9.61,0.60,9.89,-9.57,0.08,-2.29,9.85
-2.22,-9.63,0.60,9.90,-9.59,0.12,-2.28,9.86
-2.25,-9.64,0.62,9.92,-9.60,0.11,-2.25,9.86
-2.21,-9.64,0.61,9.91,-9.59,0.11,-2.25,9.85
-2.25,-9.62,0.58,9.90,-9.57,0.11,-2.23,9.83
-2.21,-9.63,0.55,9.90,-9.60,0.10,-2.24,9.86
-2.21,-9.62,0.56,9.88,-9.58,0.08,-2.23,9.84
-2.21,-9.65,0.59,9.91,-9.60,0.09,-2.22,9.85
-2.18,-9.62,0.56,9.88,-9.59,0.09,-2.25,9.85
-2.28,-9.70,0.60,9.98,-9.58,0.12,-2.29,9.85
-2.33,-9.71,0.77,10.01,-9.60,0.11,-2.31,9.88
-2.26,-9.61,0.77,9.90,-9.52,0.11,-2.12,9.76
-2.20,-9.48,0.47,9.75,-9.59,0.11,-2.33,9.87
-2.19,-9.67,0.56,9.93,-9.54,0.07,-2.15,9.78
-2.19,-9.67,0.48,9.93,-9.58,0.10,-2.14,9.81
-2.25,-9.69,0.56,9.96,-9.62,0.11,-2.38,9.91
-2.35,-9.72,0.67,10.02,-9.63,0.09,-2.29,9.90
-2.30,-9.60,0.66,9.89,-9.61,0.12,-2.23,9.87
-2.28,-9.58,0.57,9.86,-9.58,0.09,-2.22,9.83
-2.32,-9.60,0.56,9.89,-9.57,0.10,-2.29,9.84
-2.32,-9.61,0.57,9.90,-9.58,0.13,-2.30,9.85
-2.32,-9.63,0.59,9.92,-9.62,0.13,-2.24,9.87
-2.26,-9.71,0.63,9.99,-9.63,0.11,-2.27,9.89
-2.24,-9.65,0.56,9.92,-9.61,0.13,-2.21,9.86
-2.26,-9.68,0.62,9.96,-9.61,0.13,-2.21,9.86
-2.26,-9.68,0.64,9.96,-9.61,0.12,-2.25,9.87
-2.26,-9.64,0.59,9.92,-9.58,0.12,-2.25,9.84
-2.26,-9.63,0.56,9.91,-9.59,0.13,-2.18,9.83
-2.28,-9.63,0.61,9.92,-9.62,0.10,-2.21,9.88
-2.24,-9.62,0.60,9.90,-9.58,0.11,-2.21,9.83
-2.26,-9.62,0.60,9.90,-9.60,0.11,-2.22,9.86
-2.21,-9.60,0.61,9.87,-9.60,0.10,-2.24,9.86
-2.24,-9.61,0.60,9.88,-9.59,0.11,-2.23,9.85
-2.25,-9.63,0.59,9.91,-9.59,0.09,-2.21,9.84
-2.26,-9.61,0.59,9.89,-9.60,0.10,-2.23,9.85
-2.24,-9.66,0.61,9.94,-9.63,0.11,-2.24,9.89
-2.27,-9.68,0.59,9.96,-9.63,0.12,-2.22,9.89
-2.21,-9.66,0.59,9.93,-9.61,0.10,-2.17,9.85
-2.22,-9.67,0.60,9.94,-9.64,0.13,-2.18,9.88
-2.23,-9.67,0.56,9.94,-9.68,0.16,-2.24,9.93
-2.27,-9.72,0.69,10.01,-9.63,0.12,-2.31,9.91
-2.20,-9.63,0.60,9.90,-9.62,0.12,-2.19,9.87
-2.24,-9.62,0.60,9.90,-9.57,0.12,-2.20,9.82
-2.26,-9.60,0.60,9.88,-9.56,0.12,-2.24,9.82
-2.31,-9.62,0.60,9.91,-9.55,0.15,-2.23,9.81
-2.26,-9.60,0.61,9.88,-9.60,0.14,-2.26,9.86
-2.23,-9.59,0.59,9.86,-9.55,0.12,-2.22,9.80
-2.22,-9.60,0.57,9.88,-9.57,0.10,-2.20,9.82
-2.23,-9.63,0.60,9.91,-9.60,0.12,-2.22,9.85
-2.23,-9.68,0.55,9.95,-9.64,0.14,-2.24,9.90
-2.25,-9.68,0.55,9.96,-9.61,0.12,-2.23,9.87
-2.29,-9.66,0.54,9.95,-9.63,0.12,-2.24,9.88
-2.29,-9.65,0.57,9.94,-9.60,0.11,-2.23,9.85
-2.25,-9.65,0.59,9.92,-9.62,0.13,-2.23,9.88
-2.30,-9.64,0.62,9.93,-9.62,0.13,-2.23,9.88
-2.27,-9.64,0.61,9.93,-9.61,0.11,-2.24,9.87
-2.26,-9.62,0.61,9.90,-9.59,0.11,-2.24,9.85
-2.27,-9.63,0.60,9.91,-9.60,0.11,-2.22,9.85
-2.27,-9.63,0.61,9.92,-9.63,0.11,-2.25,9.89
-2.22,-9.63,0.59,9.90,-9.63,0.11,-2.22,9.88
-2.25,-9.63,0.60,9.91,-9.61,0.10,-2.21,9.86
-2.27,-9.63,0.61,9.91,-9.59,0.14,-2.21,9.85
-2.26,-9.61,0.62,9.89,-9.59,0.13,-2.22,9.84
-2.28,-9.64,0.61,9.92,-9.61,0.16,-2.24,9.86
-2.29,-9.67,0.59,9.95,-9.57,0.14,-2.23,9.82
-2.27,-9.60,0.58,9.89,-9.60,0.15,-2.23,9.85
-2.27,-9.65,0.60,9.94,-9.59,0.15,-2.20,9.84
-2.26,-9.61,0.59,9.89,-9.56,0.13,-2.23,9.82
-2.29,-9.60,0.63,9.89,-9.63,0.15,-2.25,9.89
-2.29,-9.61,0.61,9.90,-9.60,0.10,-2.26,9.87
-2.26,-9.64,0.61,9.92,-9.60,0.14,-2.20,9.85
-2.27,-9.62,0.61,9.91,-9.62,0.13,-2.23,9.87
-2.27,-9.65,0.57,9.92,-9.61,0.14,-2.25,9.87
-2.28,-9.62,0.57,9.91,-9.60,0.12,-2.24,9.86
-2.27,-9.63,0.56,9.91,-9.64,0.13,-2.25,9.90
-2.28,-9.64,0.59,9.92,-9.62,0.11,-2.25,9.88
-2.29,-9.62,0.57,9.91,-9.60,0.13,-2.24,9.86
-2.27,-9.65,0.59,9.93,-9.60,0.14,-2.25,9.86
-2.29,-9.64,0.58,9.92,-9.62,0.13,-2.23,9.88
-2.30,-9.64,0.59,9.93,-9.61,0.11,-2.26,9.88
-2.27,-9.60,0.57,9.88,-9.60,0.14,-2.25,9.86
-2.27,-9.60,0.58,9.89,-9.60,0.11,-2.22,9.85
-2.26,-9.62,0.59,9.90,-9.57,0.12,-2.25,9.83
-2.30,-9.59,0.58,9.88,-9.58,0.11,-2.24,9.84
-2.24,-9.59,0.57,9.86,-9.61,0.13,-2.23,9.87
-2.26,-9.62,0.57,9.90,-9.59,0.14,-2.23,9.85
-2.27,-9.63,0.56,9.91,-9.57,0.16,-2.23,9.82
-2.26,-9.63,0.55,9.91,-9.61,0.14,-2.25,9.87
-2.28,-9.62,0.57,9.90,-9.61,0.16,-2.24,9.87
-2.30,-9.64,0.57,9.93,-9.60,0.13,-2.25,9.86
-2.30,-9.64,0.58,9.93,-9.60,0.15,-2.24,9.86
-2.33,-9.62,0.61,9.92,-9.60,0.15,-2.26,9.86
-2.29,-9.63,0.58,9.91,-9.62,0.17,-2.22,9.88
-2.32,-9.63,0.59,9.92,-9.61,0.14,-2.26,9.87
-2.32,-9.62,0.57,9.92,-9.59,0.16,-2.26,9.85
-2.30,-9.65,0.58,9.93,-9.59,0.17,-2.24,9.85
-2.31,-9.62,0.61,9.91,-9.62,0.14,-2.22,9.87
-2.26,-9.61,0.58,9.89,-9.59,0.16,-2.21,9.85
-2.29,-9.63,0.59,9.91,-9.61,0.11,-2.25,9.87
-2.33,-9.71,0.72,10.01,-9.63,0.15,-2.31,9.90
-2.36,-9.62,0.73,9.93,-9.53,0.13,-2.20,9.78
-2.21,-9.45,0.56,9.72,-9.60,0.13,-2.37,9.89
-2.18,-9.62,0.43,9.87,-9.57,0.08,-2.29,9.85
-2.23,-9.65,0.50,9.92,-9.56,0.11,-2.13,9.80
-2.23,-9.67,0.54,9.94,-9.62,0.10,-2.38,9.91
-2.29,-9.65,0.68,9.95,-9.59,0.15,-2.27,9.85
-2.22,-9.59,0.62,9.87,-9.59,0.13,-2.26,9.86
-2.24,-9.52,0.55,9.80,-9.58,0.13,-2.21,9.83
-2.26,-9.60,0.52,9.88,-9.58,0.13,-2.25,9.84
-2.30,-9.65,0.56,9.94,-9.59,0.16,-2.24,9.85
-2.29,-9.68,0.59,9.96,-9.66,0.14,-2.21,9.91
-2.33,-9.70,0.61,9.99,-9.68,0.14,-2.24,9.94
-2.26,-9.73,0.61,10.00,-9.68,0.12,-2.19,9.92
-2.33,-9.69,0.60,9.98,-9.66,0.11,-2.19,9.91
-2.31,-9.66,0.63,9.95,-9.63,0.13,-2.19,9.87
-2.31,-9.65,0.63,9.94,-9.60,0.15,-2.22,9.85
-2.31,-9.61,0.64,9.91,-9.62,0.14,-2.22,9.88
-2.30,-9.61,0.59,9.90,-9.58,0.14,-2.23,9.84
-2.31,-9.61,0.57,9.90,-9.60,0.12,-2.18,9.85
-2.28,-9.63,0.61,9.91,-9.60,0.11,-2.22,9.85
-2.26,-9.61,0.61,9.89,-9.58,0.11,-2.19,9.83
-2.27,-9.60,0.61,9.88,-9.57,0.08,-2.24,9.83
-2.27,-9.62,0.61,9.90,-9.57,0.11,-2.25,9.83
-2.28,-9.62,0.58,9.90,-9.59,0.10,-2.21,9.85
-2.29,-9.64,0.59,9.93,-9.58,0.07,-2.23,9.84
-2.27,-9.65,0.58,9.93,-9.60,0.08,-2.23,9.85
-2.32,-9.66,0.55,9.95,-9.65,0.11,-2.28,9.91
-2.26,-9.69,0.58,9.97,-9.65,0.07,-2.24,9.90
-2.30,-9.68,0.53,9.96,-9.66,0.14,-2.26,9.92
-2.28,-9.70,0.58,9.98,-9.61,0.14,-2.32,9.88
-2.27,-9.69,0.67,9.97,-9.64,0.12,-2.24,9.89
-2.25,-9.65,0.63,9.93,-9.59,0.07,-2.24,9.85
-2.26,-9.61,0.51,9.89,-9.52,0.11,-2.26,9.79
-2.27,-9.59,0.55,9.87,-9.55,0.15,-2.29,9.83
-2.33,-9.62,0.55,9.91,-9.57,0.14,-2.31,9.85
-2.28,-9.61,0.56,9.89,-9.60,0.14,-2.28,9.87
-2.29,-9.61,0.51,9.89,-9.62,0.13,-2.28,9.89
-2.28,-9.67,0.57,9.95,-9.62,0.09,-2.29,9.89
-2.28,-9.67,0.56,9.95,-9.62,0.10,-2.29,9.89
-2.28,-9.68,0.55,9.96,-9.63,0.10,-2.32,9.90
-2.27,-9.65,0.58,9.93,-9.60,0.10,-2.35,9.88
-2.27,-9.66,0.56,9.93,-9.61,0.08,-2.30,9.88
-2.26,-9.63,0.57,9.91,-9.57,0.10,-2.32,9.84
-2.23,-9.63,0.54,9.90,-9.58,0.08,-2.33,9.86
-2.23,-9.64,0.56,9.91,-9.56,0.03,-2.32,9.84
-2.23,-9.61,0.58,9.89,-9.55,0.06,-2.34,9.83
-2.22,-9.65,0.59,9.92,-9.60,0.05,-2.34,9.88
-2.19,-9.63,0.58,9.89,-9.56,0.02,-2.36,9.85
-2.19,-9.62,0.63,9.89,-9.57,0.05,-2.34,9.85
-2.21,-9.62,0.64,9.89,-9.56,0.05,-2.31,9.84
-2.23,-9.62,0.62,9.89,-9.56,0.06,-2.37,9.85
-2.26,-9.62,0.64,9.91,-9.60,0.07,-2.32,9.87
-2.25,-9.63,0.60,9.91,-9.56,0.07,-2.29,9.83
-2.24,-9.62,0.57,9.89,-9.58,0.06,-2.31,9.86
-2.26,-9.63,0.59,9.91,-9.60,0.07,-2.34,9.88
-2.22,-9.67,0.59,9.94,-9.58,0.12,-2.34,9.86
-2.23,-9.65,0.59,9.92,-9.60,0.12,-2.33,9.88
-2.28,-9.64,0.59,9.92,-9.58,0.11,-2.34,9.87
-2.29,-9.65,0.59,9.94,-9.59,0.13,-2.37,9.88
-2.27,-9.61,0.63,9.90,-9.56,0.09,-2.38,9.85
-2.27,-9.63,0.62,9.91,-9.56,0.10,-2.36,9.84
-2.22,-9.60,0.65,9.88,-9.55,0.09,-2.38,9.84
-2.23,-9.62,0.66,9.90,-9.53,0.04,-2.38,9.83
-2.23,-9.62,0.66,9.89,-9.52,0.07,-2.39,9.81
-2.27,-9.60,0.62,9.88,-9.53,0.05,-2.40,9.83
-2.22,-9.64,0.67,9.91,-9.56,0.04,-2.40,9.86
-2.24,-9.62,0.67,9.90,-9.54,0.05,-2.37,9.83
-2.21,-9.61,0.68,9.88,-9.58,0.05,-2.40,9.88
-2.22,-9.67,0.65,9.95,-9.55,0.07,-2.40,9.85
-2.24,-9.67,0.67,9.95,-9.54,0.03,-2.41,9.84
-2.20,-9.68,0.70,9.95,-9.56,0.03,-2.43,9.87
-2.24,-9.60,0.71,9.89,-9.53,0.03,-2.42,9.83
-2.22,-9.58,0.70,9.86,-9.52,0.05,-2.40,9.82
-2.23,-9.57,0.72,9.86,-9.53,0.05,-2.42,9.83
-2.21,-9.59,0.70,9.86,-9.52,0.03,-2.40,9.82
-2.21,-9.58,0.69,9.85,-9.49,0.07,-2.39,9.79
-2.22,-9.60,0.68,9.88,-9.53,0.10,-2.42,9.83
-2.22,-9.63,0.66,9.90,-9.57,0.05,-2.47,9.89
-2.26,-9.62,0.65,9.90,-9.55,0.06,-2.42,9.86
-2.27,-9.65,0.65,9.93,-9.58,0.06,-2.40,9.87
-2.24,-9.66,0.69,9.94,-9.60,0.07,-2.42,9.90
-2.24,-9.68,0.71,9.96,-9.57,0.05,-2.46,9.88
-2.23,-9.65,0.74,9.93,-9.56,0.04,-2.43,9.86
-2.23,-9.62,0.73,9.90,-9.57,0.07,-2.44,9.88
-2.23,-9.62,0.71,9.90,-9.59,0.07,-2.46,9.90
-2.25,-9.64,0.71,9.92,-9.57,0.03,-2.46,9.88
-2.22,-9.63,0.68,9.91,-9.57,0.06,-2.45,9.88
-2.21,-9.63,0.65,9.91,-9.58,0.05,-2.46,9.89
-2.27,-9.69,0.69,9.98,-9.54,0.07,-2.53,9.87
-2.30,-9.65,0.88,9.96,-9.53,0.00,-2.46,9.84
-2.25,-9.60,0.85,9.89,-9.53,0.01,-2.36,9.82
-2.18,-9.51,0.72,9.78,-9.53,0.05,-2.54,9.87
-2.20,-9.65,0.71,9.92,-9.52,0.04,-2.46,9.84
-2.13,-9.61,0.65,9.86,-9.52,0.04,-2.52,9.85
-2.18,-9.61,0.73,9.88,-9.51,-0.01,-2.57,9.85
-2.28,-9.63,0.82,9.93,-9.46,0.02,-2.52,9.80
-2.26,-9.59,0.81,9.88,-9.54,0.09,-2.47,9.86
-2.25,-9.55,0.68,9.83,-9.54,0.07,-2.43,9.84
-2.23,-9.63,0.63,9.90,-9.59,0.08,-2.45,9.90
-2.26,-9.69,0.71,9.98,-9.59,0.04,-2.47,9.90
-2.21,-9.71,0.74,9.98,-9.63,0.03,-2.50,9.95
-2.19,-9.68,0.73,9.96,-9.61,-0.00,-2.45,9.92
-2.20,-9.68,0.74,9.95,-9.56,-0.01,-2.48,9.87
-2.17,-9.65,0.76,9.92,-9.53,0.04,-2.49,9.85
-2.23,-9.60,0.80,9.88,-9.52,0.03,-2.51,9.85
-2.19,-9.61,0.75,9.88,-9.49,0.01,-2.48,9.81
-2.21,-9.61,0.73,9.88,-9.51,-0.00,-2.48,9.82
-2.22,-9.58,0.74,9.87,-9.52,0.02,-2.48,9.83
-2.20,-9.58,0.74,9.86,-9.52,0.01,-2.45,9.83
-2.20,-9.58,0.73,9.86,-9.51,0.01,-2.43,9.82
-2.18,-9.59,0.75,9.86,-9.53,0.02,-2.49,9.85
-2.18,-9.62,0.75,9.89,-9.54,0.02,-2.53,9.87
-2.25,-9.61,0.75,9.90,-9.55,0.02,-2.49,9.87
-2.19,-9.62,0.75,9.90,-9.52,0.06,-2.51,9.85
-2.26,-9.64,0.74,9.93,-9.53,0.03,-2.51,9.85
-2.21,-9.63,0.70,9.90,-9.54,0.05,-2.49,9.86
-2.16,-9.68,0.74,9.95,-9.54,0.01,-2.46,9.85
-2.21,-9.63,0.70,9.91,-9.59,0.01,-2.56,9.92
-2.22,-9.66,0.86,9.95,-9.49,0.00,-2.56,9.83
-2.17,-9.58,0.78,9.86,-9.55,0.03,-2.47,9.87
-2.17,-9.58,0.76,9.86,-9.52,-0.03,-2.47,9.83
-2.21,-9.62,0.83,9.90,-9.53,-0.01,-2.51,9.86
-2.23,-9.60,0.83,9.89,-9.52,0.00,-2.50,9.84
-2.16,-9.57,0.70,9.84,-9.51,-0.02,-2.51,9.83
-2.17,-9.59,0.64,9.86,-9.54,0.01,-2.48,9.86
-2.18,-9.64,0.80,9.92,-9.54,-0.00,-2.52,9.87
-2.26,-9.64,0.77,9.93,-9.54,0.02,-2.51,9.87
-2.17,-9.61,0.69,9.87,-9.53,0.01,-2.51,9.86
-2.22,-9.64,0.75,9.92,-9.53,0.02,-2.50,9.86
-2.22,-9.64,0.76,9.92,-9.55,0.00,-2.53,9.88
-2.18,-9.63,0.79,9.90,-9.52,0.01,-2.52,9.85
-2.20,-9.61,0.77,9.89,-9.54,0.03,-2.59,9.88
-2.22,-9.60,0.79,9.89,-9.52,0.04,-2.51,9.84
-2.21,-9.60,0.79,9.88,-9.51,-0.03,-2.54,9.85
-2.20,-9.59,0.76,9.87,-9.50,-0.02,-2.54,9.84
-2.18,-9.62,0.77,9.89,-9.51,0.01,-2.51,9.84
-2.21,-9.63,0.80,9.91,-9.56,-0.00,-2.50,9.88
-2.21,-9.63,0.81,9.91,-9.53,-0.01,-2.48,9.84
-2.25,-9.62,0.80,9.92,-9.54,0.00,-2.52,9.86
-2.19,-9.59,0.78,9.87,-9.55,0.01,-2.52,9.88
-2.21,-9.60,0.74,9.87,-9.53,0.03,-2.53,9.86
-2.24,-9.60,0.76,9.88,-9.53,0.01,-2.52,9.86
-2.20,-9.60,0.77,9.88,-9.54,0.01,-2.56,9.88
-2.20,-9.60,0.79,9.88,-9.52,-0.00,-2.52,9.84
-2.22,-9.60,0.77,9.88,-9.51,-0.01,-2.54,9.84
-2.20,-9.61,0.76,9.88,-9.53,0.01,-2.51,9.86
-2.22,-9.62,0.80,9.91,-9.50,0.02,-2.53,9.83
-2.21,-9.63,0.81,9.91,-9.52,-0.02,-2.55,9.86
-2.19,-9.61,0.79,9.89,-9.53,0.01,-2.54,9.86
-2.21,-9.61,0.80,9.89,-9.53,0.00,-2.51,9.85
-2.16,-9.61,0.78,9.88,-9.52,-0.02,-2.51,9.85
-2.22,-9.60,0.80,9.89,-9.53,-0.01,-2.54,9.86
-2.21,-9.61,0.76,9.90,-9.52,0.01,-2.55,9.85
-2.24,-9.62,0.77,9.91,-9.54,-0.01,-2.53,9.87
-2.25,-9.61,0.76,9.90,-9.54,0.00,-2.53,9.87
-2.22,-9.63,0.74,9.91,-9.53,-0.01,-2.53,9.86
-2.21,-9.61,0.76,9.89,-9.51,0.00,-2.54,9.84
-2.22,-9.63,0.73,9.91,-9.51,0.01,-2.51,9.84
-2.20,-9.60,0.81,9.88,-9.51,0.00,-2.55,9.85
-2.21,-9.61,0.81,9.89,-9.50,0.01,-2.56,9.84
-2.22,-9.64,0.80,9.92,-9.51,0.00,-2.56,9.85
-2.21,-9.60,0.78,9.88,-9.53,0.02,-2.51,9.86
-2.21,-9.60,0.78,9.88,-9.51,0.05,-2.55,9.85
-2.21,-9.59,0.77,9.87,-9.50,0.05,-2.55,9.84
-2.19,-9.61,0.76,9.88,-9.52,0.03,-2.53,9.85
-2.20,-9.64,0.77,9.92,-9.54,0.00,-2.51,9.86
-2.18,-9.61,0.71,9.88,-9.53,0.01,-2.51,9.85
-2.21,-9.67,0.73,9.95,-9.58,0.04,-2.54,9.91
-2.27,-9.69,0.76,9.98,-9.57,0.03,-2.58,9.92
-2.29,-9.66,0.89,9.97,-9.57,0.03,-2.51,9.89
-2.25,-9.62,0.85,9.91,-9.51,-0.01,-2.44,9.82
-2.15,-9.54,0.77,9.81,-9.56,-0.01,-2.55,9.90
-2.15,-9.63,0.65,9.89,-9.54,-0.02,-2.50,9.86
-2.14,-9.67,0.75,9.93,-9.56,-0.03,-2.50,9.88
-2.19,-9.63,0.77,9.91,-9.51,-0.06,-2.62,9.87
-2.24,-9.65,0.88,9.94,-9.48,-0.01,-2.57,9.83
-2.24,-9.55,0.81,9.84,-9.48,0.04,-2.49,9.80
-2.26,-9.53,0.71,9.82,-9.52,0.05,-2.50,9.84
-2.24,-9.63,0.64,9.91,-9.52,0.01,-2.50,9.85
-2.23,-9.65,0.72,9.93,-9.55,0.03,-2.52,9.88
-2.21,-9.65,0.78,9.93,-9.57,-0.01,-2.49,9.89
-2.15,-9.65,0.76,9.92,-9.59,0.03,-2.52,9.91
-2.19,-9.65,0.79,9.93,-9.54,0.00,-2.54,9.87
-2.22,-9.63,0.82,9.92,-9.52,0.02,-2.52,9.85
-2.21,-9.57,0.82,9.85,-9.54,0.01,-2.50,9.86
-2.22,-9.58,0.79,9.87,-9.49,0.03,-2.48,9.80
-2.25,-9.58,0.78,9.87,-9.51,0.06,-2.46,9.82
-2.21,-9.58,0.77,9.86,-9.49,0.04,-2.49,9.81
-2.22,-9.58,0.78,9.87,-9.52,0.03,-2.43,9.83
-2.24,-9.60,0.75,9.89,-9.56,0.03,-2.46,9.87
-2.21,-9.62,0.78,9.90,-9.56,0.03,-2.45,9.87
-2.20,-9.64,0.80,9.92,-9.56,-0.01,-2.46,9.87
-2.24,-9.63,0.78,9.92,-9.55,0.04,-2.47,9.87
-2.26,-9.63,0.78,9.92,-9.55,-0.01,-2.48,9.87
-2.22,-9.65,0.78,9.93,-9.56,0.01,-2.47,9.88
-2.25,-9.67,0.78,9.96,-9.58,0.02,-2.50,9.90
-2.15,-9.64,0.77,9.91,-9.55,-0.00,-2.47,9.87
-2.23,-9.61,0.70,9.89,-9.53,0.02,-2.44,9.83
-2.22,-9.66,0.78,9.95,-9.53,0.03,-2.61,9.88
-2.22,-9.63,0.82,9.92,-9.57,0.03,-2.43,9.88
-2.18,-9.59,0.76,9.86,-9.51,-0.03,-2.49,9.83
-2.21,-9.63,0.79,9.92,-9.51,-0.00,-2.52,9.83
-2.22,-9.59,0.81,9.88,-9.50,0.01,-2.49,9.82
-2.22,-9.57,0.70,9.85,-9.54,0.01,-2.48,9.85
-2.23,-9.62,0.70,9.90,-9.50,0.04,-2.46,9.82
-2.19,-9.60,0.70,9.87,-9.53,0.03,-2.48,9.85
-2.19,-9.64,0.74,9.92,-9.53,0.02,-2.48,9.85
-2.20,-9.63,0.74,9.91,-9.54,0.05,-2.50,9.86
-2.22,-9.61,0.74,9.90,-9.52,0.04,-2.50,9.85
-2.23,-9.63,0.77,9.92,-9.55,0.03,-2.52,9.88
-2.21,-9.64,0.76,9.92,-9.55,0.01,-2.51,9.87
-2.22,-9.62,0.76,9.90,-9.53,0.04,-2.50,9.85
-2.22,-9.62,0.74,9.90,-9.59,0.01,-2.53,9.92
-2.22,-9.61,0.75,9.89,-9.55,0.03,-2.49,9.87
-2.23,-9.61,0.73,9.89,-9.53,0.01,-2.48,9.85
-2.22,-9.65,0.73,9.93,-9.54,0.02,-2.45,9.85
-2.21,-9.66,0.73,9.94,-9.55,0.01,-2.48,9.87
-2.25,-9.63,0.73,9.91,-9.55,0.02,-2.44,9.86
-2.26,-9.60,0.72,9.89,-9.56,0.01,-2.47,9.88
-2.26,-9.63,0.76,9.92,-9.53,0.03,-2.49,9.85
-2.25,-9.61,0.77,9.90,-9.54,0.02,-2.47,9.85
-2.24,-9.61,0.76,9.90,-9.52,0.03,-2.49,9.84
-2.21,-9.60,0.74,9.88,-9.53,0.03,-2.49,9.85
-2.21,-9.62,0.74,9.90,-9.52,0.03,-2.47,9.83
-2.21,-9.61,0.74,9.89,-9.54,0.03,-2.46,9.86
-2.21,-9.60,0.73,9.88,-9.54,0.04,-2.42,9.85
-2.23,-9.62,0.74,9.90,-9.55,0.06,-2.44,9.85
-2.23,-9.60,0.74,9.89,-9.56,0.06,-2.44,9.87
-2.21,-9.62,0.74,9.90,-9.56,0.00,-2.42,9.86
-2.18,-9.65,0.74,9.92,-9.57,0.04,-2.46,9.88
-2.19,-9.61,0.75,9.89,-9.55,0.01,-2.46,9.86
-2.18,-9.63,0.78,9.90,-9.57,-0.01,-2.43,9.87
-2.22,-9.63,0.77,9.91,-9.57,0.00,-2.45,9.88
-2.21,-9.63,0.75,9.91,-9.52,0.03,-2.42,9.82
-2.24,-9.61,0.75,9.90,-9.58,0.03,-2.46,9.89
-2.26,-9.63,0.70,9.92,-9.55,0.05,-2.46,9.86
-2.26,-9.62,0.71,9.91,-9.55,0.04,-2.46,9.86
-2.22,-9.61,0.69,9.89,-9.53,0.06,-2.48,9.85
-2.23,-9.62,0.70,9.90,-9.55,0.05,-2.48,9.87
-2.22,-9.61,0.72,9.89,-9.53,0.07,-2.48,9.85
-2.23,-9.63,0.73,9.91,-9.53,0.06,-2.46,9.84
-2.22,-9.59,0.74,9.87,-9.53,0.08,-2.45,9.84
-2.25,-9.62,0.73,9.90,-9.53,0.09,-2.45,9.84
-2.26,-9.61,0.72,9.90,-9.54,0.03,-2.49,9.86
-2.28,-9.61,0.71,9.90,-9.56,0.07,-2.49,9.88
-2.23,-9.61,0.71,9.89,-9.58,0.08,-2.45,9.89
-2.24,-9.60,0.70,9.88,-9.56,0.04,-2.42,9.86
-2.21,-9.61,0.66,9.88,-9.56,0.05,-2.46,9.87
-2.29,-9.68,0.75,9.98,-9.59,0.06,-2.50,9.91
-2.26,-9.67,0.90,9.98,-9.58,0.07,-2.49,9.90
-2.28,-9.60,0.83,9.90,-9.51,0.04,-2.34,9.79
-2.16,-9.50,0.61,9.76,-9.51,0.03,-2.45,9.82
-2.19,-9.69,0.67,9.96,-9.54,0.03,-2.42,9.85
-2.14,-9.67,0.66,9.93,-9.58,0.05,-2.38,9.87
-2.20,-9.70,0.71,9.97,-9.61,0.02,-2.52,9.94
-2.24,-9.67,0.81,9.95,-9.50,0.01,-2.49,9.82
-2.24,-9.58,0.80,9.87,-9.53,0.06,-2.41,9.83
-2.23,-9.54,0.67,9.82,-9.54,0.06,-2.35,9.83
-2.25,-9.61,0.64,9.89,-9.57,0.06,-2.42,9.87
-2.27,-9.64,0.68,9.93,-9.55,0.05,-2.41,9.85
-2.27,-9.63,0.74,9.92,-9.55,0.06,-2.44,9.86
-2.24,-9.64,0.72,9.92,-9.61,0.04,-2.44,9.91
-2.25,-9.66,0.73,9.94,-9.61,0.05,-2.41,9.91
-2.23,-9.65,0.75,9.93,-9.58,0.03,-2.41,9.88
-2.22,-9.59,0.75,9.88,-9.51,0.02,-2.40,9.80
-2.23,-9.60,0.73,9.88,-9.53,0.03,-2.39,9.82
-2.23,-9.59,0.69,9.87,-9.54,0.04,-2.40,9.83
-2.19,-9.59,0.70,9.87,-9.50,0.07,-2.36,9.79
-2.22,-9.60,0.70,9.88,-9.51,0.04,-2.36,9.80
-2.18,-9.59,0.71,9.86,-9.54,0.05,-2.34,9.83
-2.20,-9.62,0.69,9.89,-9.57,0.07,-2.38,9.87
-2.21,-9.64,0.70,9.91,-9.57,0.05,-2.37,9.86
-2.20,-9.62,0.71,9.89,-9.56,0.04,-2.37,9.85
-2.21,-9.63,0.66,9.91,-9.56,0.07,-2.39,9.86
-2.24,-9.66,0.70,9.94,-9.59,0.04,-2.38,9.88
-2.26,-9.66,0.70,9.95,-9.61,0.07,-2.38,9.90
-2.26,-9.65,0.70,9.94,-9.57,0.03,-2.37,9.86
-2.21,-9.67,0.70,9.94,-9.58,0.06,-2.34,9.87
-2.20,-9.66,0.71,9.94,-9.54,0.06,-2.33,9.82
-2.22,-9.59,0.63,9.87,-9.61,0.09,-2.43,9.92
-2.26,-9.66,0.73,9.95,-9.54,0.07,-2.38,9.84
-2.21,-9.63,0.81,9.91,-9.59,0.04,-2.33,9.87
-2.22,-9.60,0.72,9.88,-9.55,0.02,-2.38,9.84
-2.23,-9.55,0.65,9.83,-9.52,0.04,-2.35,9.80
-2.25,-9.57,0.64,9.86,-9.52,0.06,-2.39,9.82
-2.26,-9.62,0.64,9.90,-9.57,0.06,-2.36,9.85
-2.23,-9.61,0.65,9.89,-9.57,0.07,-2.34,9.86
-2.20,-9.63,0.63,9.90,-9.59,0.06,-2.34,9.87
-2.20,-9.64,0.63,9.91,-9.59,0.06,-2.34,9.87
-2.22,-9.68,0.66,9.95,-9.60,0.05,-2.37,9.89
-2.25,-9.67,0.67,9.95,-9.59,0.06,-2.40,9.88
-2.23,-9.65,0.65,9.92,-9.59,0.05,-2.36,9.88
-2.23,-9.64,0.68,9.92,-9.59,0.04,-2.36,9.87
-2.27,-9.63,0.67,9.92,-9.59,0.05,-2.34,9.87
-2.23,-9.64,0.70,9.92,-9.58,0.05,-2.34,9.87
-2.20,-9.60,0.65,9.87,-9.55,0.05,-2.33,9.83
-2.23,-9.61,0.67,9.89,-9.56,0.06,-2.33,9.84
-2.22,-9.63,0.65,9.90,-9.53,0.06,-2.32,9.81
-2.23,-9.64,0.67,9.92,-9.60,0.05,-2.32,9.88
-2.25,-9.68,0.64,9.95,-9.58,0.03,-2.33,9.86
-2.27,-9.69,0.63,9.97,-9.58,0.05,-2.32,9.86
-2.26,-9.66,0.65,9.94,-9.59,0.07,-2.33,9.87
-2.26,-9.66,0.65,9.94,-9.63,0.08,-2.34,9.91
-2.24,-9.64,0.68,9.92,-9.58,0.05,-2.35,9.86
-2.24,-9.61,0.68,9.89,-9.58,0.09,-2.36,9.87
-2.24,-9.63,0.67,9.91,-9.58,0.03,-2.35,9.86
-2.25,-9.63,0.68,9.91,-9.58,0.06,-2.33,9.86
-2.23,-9.61,0.66,9.89,-9.57,0.08,-2.31,9.85
-2.20,-9.63,0.66,9.90,-9.58,0.06,-2.32,9.86
-2.21,-9.61,0.65,9.88,-9.57,0.07,-2.29,9.84
-2.23,-9.63,0.65,9.90,-9.60,0.06,-2.30,9.87
-2.23,-9.65,0.66,9.93,-9.60,0.07,-2.29,9.87
-2.25,-9.64,0.65,9.92,-9.60,0.05,-2.30,9.87
-2.24,-9.67,0.67,9.95,-9.58,0.04,-2.26,9.84
-2.26,-9.65,0.63,9.93,-9.61,0.06,-2.29,9.88
-2.26,-9.67,0.64,9.95,-9.61,0.06,-2.28,9.88
-2.25,-9.63,0.65,9.91,-9.64,0.08,-2.26,9.90
-2.26,-9.68,0.63,9.96,-9.61,0.09,-2.21,9.86
-2.22,-9.68,0.61,9.95,-9.60,0.06,-2.25,9.86
-2.26,-9.65,0.63,9.93,-9.61,0.06,-2.26,9.88
-2.28,-9.65,0.65,9.94,-9.55,0.08,-2.24,9.81
-2.24,-9.65,0.65,9.93,-9.57,0.11,-2.25,9.83
-2.24,-9.61,0.65,9.89,-9.59,0.09,-2.29,9.86
-2.21,-9.61,0.62,9.89,-9.59,0.08,-2.34,9.87
-2.24,-9.62,0.64,9.90,-9.57,0.09,-2.33,9.85
-2.24,-9.60,0.63,9.88,-9.61,0.10,-2.29,9.88
-2.23,-9.64,0.63,9.91,-9.55,0.09,-2.32,9.83
-2.24,-9.60,0.62,9.88,-9.57,0.08,-2.32,9.85
-2.20,-9.59,0.61,9.86,-9.55,0.09,-2.32,9.83
-2.22,-9.64,0.61,9.91,-9.55,0.08,-2.29,9.82
-2.20,-9.62,0.60,9.89,-9.59,0.08,-2.29,9.86
-2.17,-9.62,0.59,9.88,-9.60,0.09,-2.29,9.86
-2.20,-9.62,0.63,9.89,-9.58,0.08,-2.31,9.85
-2.25,-9.63,0.65,9.91,-9.58,0.11,-2.24,9.84
-2.24,-9.63,0.63,9.91,-9.57,0.11,-2.28,9.84
-2.23,-9.63,0.62,9.91,-9.57,0.11,-2.27,9.84
-2.22,-9.63,0.61,9.90,-9.61,0.11,-2.26,9.87
-2.20,-9.64,0.61,9.91,-9.58,0.11,-2.23,9.84
-2.22,-9.64,0.58,9.91,-9.59,0.09,-2.25,9.85
-2.22,-9.63,0.58,9.90,-9.63,0.09,-2.24,9.89
-2.33,-9.71,0.62,10.01,-9.66,0.11,-2.34,9.94
-2.29,-9.76,0.83,10.06,-9.61,0.09,-2.26,9.87
-2.25,-9.61,0.61,9.88,-9.58,0.07,-2.12,9.82
-2.16,-9.62,0.49,9.87,-9.63,0.09,-2.32,9.91
-2.23,-9.70,0.60,9.97,-9.58,0.08,-2.18,9.83
-2.21,-9.66,0.49,9.92,-9.64,0.08,-2.26,9.90
-2.28,-9.71,0.62,10.00,-9.68,0.08,-2.40,9.97
-2.31,-9.68,0.69,9.98,-9.61,0.09,-2.30,9.88
-2.24,-9.56,0.63,9.84,-9.58,0.08,-2.21,9.83
-2.25,-9.56,0.55,9.83,-9.54,0.10,-2.22,9.80
-2.25,-9.59,0.53,9.86,-9.59,0.13,-2.26,9.85
-2.25,-9.61,0.57,9.89,-9.57,0.15,-2.26,9.84
-2.28,-9.63,0.61,9.92,-9.61,0.12,-2.22,9.87
-2.25,-9.66,0.61,9.94,-9.63,0.11,-2.25,9.89
-2.24,-9.68,0.64,9.95,-9.62,0.10,-2.20,9.87
-2.22,-9.65,0.64,9.93,-9.59,0.10,-2.20,9.84
-2.21,-9.61,0.63,9.88,-9.60,0.10,-2.23,9.86
-2.23,-9.64,0.59,9.91,-9.57,0.15,-2.17,9.82
-2.24,-9.63,0.58,9.90,-9.62,0.12,-2.19,9.87
-2.26,-9.59,0.57,9.87,-9.62,0.11,-2.20,9.87
-2.23,-9.62,0.57,9.89,-9.61,0.10,-2.18,9.85
-2.23,-9.64,0.57,9.92,-9.61,0.12,-2.15,9.85
-2.23,-9.65,0.57,9.92,-9.60,0.09,-2.22,9.86
-2.22,-9.62,0.57,9.89,-9.62,0.08,-2.19,9.87
-2.25,-9.63,0.57,9.90,-9.61,0.12,-2.20,9.86
-2.25,-9.65,0.58,9.92,-9.61,0.08,-2.20,9.86
-2.26,-9.66,0.58,9.94,-9.63,0.11,-2.19,9.87
-2.25,-9.64,0.57,9.92,-9.62,0.10,-2.21,9.87
-2.25,-9.64,0.60,9.91,-9.60,0.12,-2.16,9.84
-2.23,-9.65,0.61,9.92,-9.62,0.13,-2.15,9.86
-2.21,-9.67,0.59,9.93,-9.63,0.12,-2.20,9.88
-2.28,-9.64,0.53,9.92,-9.63,0.14,-2.18,9.88
-2.26,-9.72,0.68,10.00,-9.59,0.10,-2.27,9.85
-2.22,-9.64,0.64,9.92,-9.59,0.11,-2.22,9.85
-2.20,-9.63,0.59,9.89,-9.58,0.07,-2.16,9.83
-2.23,-9.61,0.53,9.88,-9.55,0.11,-2.22,9.80
-2.26,-9.57,0.58,9.85,-9.55,0.13,-2.22,9.81
-2.23,-9.59,0.56,9.86,-9.58,0.15,-2.27,9.84
-2.24,-9.60,0.57,9.87,-9.60,0.11,-2.23,9.86
-2.22,-9.61,0.56,9.88,-9.58,0.13,-2.20,9.83
-2.22,-9.65,0.53,9.91,-9.62,0.11,-2.18,9.87
-2.19,-9.64,0.53,9.90,-9.64,0.11,-2.17,9.88
-2.23,-9.70,0.53,9.97,-9.66,0.13,-2.20,9.91
-2.27,-9.68,0.53,9.96,-9.65,0.11,-2.22,9.90
-2.27,-9.65,0.57,9.93,-9.64,0.09,-2.19,9.88
-2.25,-9.65,0.58,9.93,-9.62,0.11,-2.20,9.87
-2.23,-9.64,0.56,9.91,-9.62,0.10,-2.24,9.87
-2.26,-9.59,0.56,9.87,-9.58,0.08,-2.21,9.84
-2.21,-9.63,0.59,9.90,-9.63,0.10,-2.19,9.87
-2.23,-9.61,0.58,9.89,-9.59,0.08,-2.21,9.85
-2.23,-9.64,0.56,9.91,-9.64,0.09,-2.19,9.88
-2.22,-9.64,0.58,9.91,-9.62,0.13,-2.17,9.86
-2.24,-9.64,0.57,9.91,-9.60,0.10,-2.20,9.85
-2.25,-9.65,0.62,9.93,-9.58,0.11,-2.20,9.83
-2.22,-9.65,0.59,9.92,-9.60,0.11,-2.19,9.84
-2.23,-9.65,0.57,9.92,-9.58,0.12,-2.19,9.83
-2.25,-9.64,0.58,9.91,-9.61,0.11,-2.18,9.86
-2.21,-9.63,0.59,9.90,-9.61,0.13,-2.18,9.85
-2.22,-9.63,0.60,9.90,-9.56,0.15,-2.16,9.80
-2.21,-9.60,0.61,9.87,-9.59,0.13,-2.18,9.84
-2.25,-9.62,0.61,9.90,-9.57,0.12,-2.18,9.81
-2.27,-9.62,0.58,9.90,-9.60,0.10,-2.14,9.84
-2.22,-9.65,0.60,9.92,-9.63,0.10,-2.16,9.86
-2.23,-9.65,0.59,9.92,-9.63,0.11,-2.17,9.87
-2.28,-9.63,0.61,9.91,-9.65,0.09,-2.17,9.89
-2.25,-9.66,0.58,9.94,-9.63,0.13,-2.18,9.87
-2.26,-9.65,0.57,9.93,-9.62,0.10,-2.17,9.86
-2.25,-9.65,0.58,9.92,-9.61,0.11,-2.21,9.86
-2.27,-9.63,0.59,9.91,-9.62,0.12,-2.18,9.86
-2.25,-9.66,0.61,9.93,-9.60,0.12,-2.17,9.84
-2.23,-9.64,0.59,9.91,-9.61,0.11,-2.15,9.85
-2.24,-9.63,0.56,9.91,-9.62,0.10,-2.18,9.86
-2.22,-9.64,0.55,9.91,-9.58,0.09,-2.22,9.84
-2.24,-9.66,0.56,9.93,-9.60,0.12,-2.18,9.85
-2.22,-9.64,0.55,9.91,-9.64,0.11,-2.18,9.89
-2.27,-9.64,0.56,9.92,-9.62,0.09,-2.20,9.87
-2.30,-9.63,0.57,9.92,-9.60,0.12,-2.20,9.85
-2.27,-9.61,0.60,9.90,-9.60,0.11,-2.20,9.85
-2.27,-9.62,0.60,9.90,-9.57,0.12,-2.22,9.82
-2.26,-9.61,0.58,9.89,-9.57,0.14,-2.21,9.83
-2.21,-9.60,0.61,9.87,-9.59,0.13,-2.17,9.83
-2.22,-9.61,0.60,9.89,-9.58,0.11,-2.23,9.84
-2.25,-9.59,0.57,9.87,-9.57,0.15,-2.21,9.82
-2.24,-9.61,0.58,9.88,-9.61,0.10,-2.19,9.85
-2.24,-9.62,0.54,9.89,-9.61,0.14,-2.19,9.85
-2.25,-9.64,0.56,9.92,-9.60,0.12,-2.20,9.85
-2.23,-9.65,0.59,9.92,-9.61,0.10,-2.22,9.87
-2.27,-9.67,0.58,9.95,-9.64,0.12,-2.19,9.89
-2.26,-9.65,0.58,9.93,-9.62,0.11,-2.19,9.87
-2.30,-9.65,0.59,9.94,-9.63,0.12,-2.16,9.87
-2.25,-9.67,0.62,9.94,-9.66,0.14,-2.20,9.90
-2.21,-9.62,0.59,9.89,-9.63,0.11,-2.19,9.88
-2.21,-9.64,0.58,9.91,-9.64,0.13,-2.18,9.88
-2.27,-9.69,0.59,9.97,-9.64,0.16,-2.27,9.91
-2.27,-9.67,0.72,9.96,-9.64,0.15,-2.20,9.89
-2.25,-9.55,0.55,9.82,-9.60,0.13,-2.12,9.83
-2.19,-9.57,0.40,9.82,-9.62,0.11,-2.30,9.90
-2.21,-9.73,0.55,10.00,-9.56,0.09,-2.07,9.78
-2.18,-9.67,0.50,9.93,-9.62,0.10,-2.22,9.87
-2.29,-9.67,0.64,9.95,-9.62,0.10,-2.31,9.89
-2.27,-9.63,0.69,9.92,-9.56,0.12,-2.22,9.82
-2.23,-9.55,0.62,9.83,-9.54,0.08,-2.21,9.79
-2.23,-9.54,0.55,9.81,-9.58,0.11,-2.18,9.82
-2.27,-9.57,0.55,9.85,-9.59,0.14,-2.21,9.84
-2.30,-9.61,0.56,9.90,-9.61,0.13,-2.22,9.86
-2.25,-9.62,0.58,9.89,-9.63,0.14,-2.14,9.87
-2.22,-9.67,0.57,9.94,-9.66,0.14,-2.14,9.89
-2.20,-9.67,0.57,9.93,-9.65,0.09,-2.19,9.89
-2.26,-9.70,0.62,9.98,-9.64,0.12,-2.20,9.89
-2.26,-9.62,0.61,9.90,-9.63,0.14,-2.17,9.88
-2.28,-9.63,0.58,9.91,-9.58,0.14,-2.15,9.82
-2.27,-9.64,0.59,9.92,-9.62,0.15,-2.18,9.87
-2.27,-9.60,0.57,9.89,-9.60,0.13,-2.17,9.84
-2.23,-9.62,0.58,9.89,-9.59,0.12,-2.17,9.83
-2.24,-9.61,0.60,9.89,-9.60,0.11,-2.20,9.85
-2.24,-9.64,0.58,9.91,-9.60,0.14,-2.17,9.84
-2.23,-9.61,0.58,9.88,-9.60,0.12,-2.19,9.85
-2.26,-9.63,0.59,9.91,-9.61,0.11,-2.18,9.86
-2.27,-9.63,0.59,9.92,-9.61,0.15,-2.19,9.86
-2.23,-9.64,0.53,9.91,-9.62,0.12,-2.18,9.86
-2.24,-9.64,0.53,9.91,-9.61,0.14,-2.21,9.86
-2.26,-9.67,0.54,9.94,-9.61,0.14,-2.21,9.86
-2.26,-9.64,0.55,9.91,-9.64,0.12,-2.18,9.89
-2.24,-9.65,0.53,9.92,-9.62,0.15,-2.26,9.88
-2.29,-9.71,0.55,9.99,-9.63,0.16,-2.24,9.89
-2.28,-9.71,0.65,9.99,-9.65,0.13,-2.24,9.91
-2.26,-9.61,0.64,9.90,-9.61,0.11,-2.20,9.86
-2.24,-9.62,0.57,9.89,-9.56,0.10,-2.23,9.82
-2.24,-9.61,0.54,9.88,-9.57,0.10,-2.23,9.83
-2.27,-9.62,0.56,9.90,-9.56,0.13,-2.24,9.82
-2.26,-9.63,0.55,9.91,-9.59,0.11,-2.24,9.85
-2.25,-9.63,0.57,9.91,-9.62,0.09,-2.20,9.86
-2.24,-9.64,0.53,9.91,-9.65,0.09,-2.18,9.89
-2.23,-9.68,0.52,9.95,-9.67,0.08,-2.19,9.92
-2.23,-9.73,0.52,9.99,-9.66,0.10,-2.23,9.92
-2.26,-9.74,0.54,10.01,-9.66,0.11,-2.23,9.91
-2.21,-9.74,0.57,10.00,-9.64,0.10,-2.29,9.91
-2.22,-9.65,0.57,9.91,-9.64,0.10,-2.27,9.91
-2.24,-9.66,0.59,9.94,-9.61,0.09,-2.29,9.88
-2.24,-9.68,0.64,9.96,-9.61,0.10,-2.27,9.88
-2.22,-9.62,0.58,9.89,-9.56,0.10,-2.26,9.82
-2.24,-9.60,0.61,9.88,-9.55,0.08,-2.28,9.82
-2.24,-9.62,0.60,9.89,-9.54,0.09,-2.27,9.81
-2.19,-9.63,0.56,9.89,-9.57,0.07,-2.26,9.84
-2.17,-9.64,0.56,9.90,-9.57,0.10,-2.27,9.83
-2.19,-9.65,0.54,9.91,-9.59,0.09,-2.26,9.85
-2.21,-9.63,0.58,9.90,-9.60,0.10,-2.24,9.85
-2.24,-9.65,0.60,9.92,-9.59,0.12,-2.26,9.85
-2.25,-9.63,0.60,9.90,-9.56,0.13,-2.26,9.83
-2.25,-9.62,0.59,9.89,-9.60,0.13,-2.27,9.87
-2.24,-9.64,0.59,9.91,-9.58,0.11,-2.27,9.85
-2.27,-9.65,0.61,9.93,-9.58,0.10,-2.31,9.86
-2.26,-9.64,0.60,9.91,-9.58,0.09,-2.30,9.86
-2.24,-9.66,0.59,9.93,-9.57,0.10,-2.30,9.84
-2.26,-9.65,0.58,9.93,-9.58,0.08,-2.28,9.85
-2.22,-9.66,0.59,9.93,-9.59,0.08,-2.30,9.86
-2.27,-9.66,0.63,9.94,-9.59,0.08,-2.27,9.86
-2.23,-9.64,0.57,9.91,-9.59,0.07,-2.27,9.86
-2.24,-9.66,0.58,9.93,-9.58,0.08,-2.29,9.85
-2.28,-9.66,0.57,9.94,-9.59,0.09,-2.29,9.86
-2.30,-9.66,0.56,9.95,-9.62,0.11,-2.30,9.89
-2.26,-9.66,0.55,9.94,-9.60,0.12,-2.32,9.88
-2.28,-9.68,0.57,9.96,-9.61,0.13,-2.30,9.88
-2.26,-9.67,0.55,9.94,-9.58,0.10,-2.32,9.86
-2.25,-9.64,0.54,9.92,-9.63,0.13,-2.32,9.91
-2.26,-9.66,0.56,9.94,-9.57,0.08,-2.36,9.86
-2.24,-9.67,0.57,9.94,-9.58,0.11,-2.37,9.87
-2.22,-9.66,0.56,9.93,-9.58,0.08,-2.37,9.87
-2.24,-9.63,0.57,9.91,-9.58,0.08,-2.37,9.87
-2.26,-9.65,0.57,9.92,-9.60,0.09,-2.36,9.88
-2.23,-9.64,0.58,9.91,-9.56,0.07,-2.38,9.85
-2.25,-9.62,0.61,9.90,-9.56,0.07,-2.35,9.85
-2.25,-9.64,0.63,9.92,-9.58,0.09,-2.36,9.87
-2.22,-9.67,0.62,9.94,-9.55,0.08,-2.34,9.83
-2.23,-9.64,0.60,9.91,-9.57,0.11,-2.35,9.85
-2.23,-9.64,0.60,9.91,-9.55,0.10,-2.35,9.84
-2.24,-9.63,0.60,9.91,-9.56,0.11,-2.38,9.85
-2.25,-9.62,0.59,9.89,-9.58,0.10,-2.39,9.87
-2.23,-9.65,0.58,9.92,-9.57,0.08,-2.37,9.85
-2.26,-9.63,0.56,9.91,-9.57,0.08,-2.37,9.86
-2.20,-9.60,0.55,9.87,-9.59,0.11,-2.35,9.87
-2.28,-9.68,0.58,9.96,-9.61,0.12,-2.44,9.91
-2.27,-9.68,0.75,9.97,-9.59,0.10,-2.44,9.89
-2.24,-9.62,0.71,9.90,-9.52,0.07,-2.26,9.79
-2.20,-9.52,0.57,9.79,-9.54,0.12,-2.46,9.85
-2.23,-9.70,0.60,9.97,-9.52,0.08,-2.36,9.81
-2.18,-9.63,0.55,9.89,-9.51,0.08,-2.31,9.79
-2.20,-9.62,0.65,9.89,-9.57,0.05,-2.58,9.92
-2.26,-9.60,0.68,9.88,-9.49,0.05,-2.48,9.81
-2.26,-9.59,0.63,9.87,-9.56,0.12,-2.41,9.86
-2.24,-9.60,0.59,9.88,-9.55,0.08,-2.34,9.83
-2.25,-9.66,0.55,9.94,-9.56,0.08,-2.41,9.86
-2.28,-9.69,0.60,9.97,-9.57,0.06,-2.41,9.87
-2.22,-9.71,0.66,9.98,-9.58,0.06,-2.43,9.89
-2.17,-9.69,0.63,9.95,-9.62,0.05,-2.43,9.92
-2.16,-9.70,0.62,9.96,-9.61,0.04,-2.39,9.90
-2.19,-9.67,0.68,9.94,-9.57,0.03,-2.40,9.86
-2.21,-9.60,0.69,9.88,-9.53,0.04,-2.42,9.84
-2.23,-9.60,0.66,9.88,-9.51,0.05,-2.41,9.81
-2.22,-9.60,0.66,9.87,-9.50,0.08,-2.40,9.80
-2.20,-9.61,0.63,9.88,-9.52,0.08,-2.38,9.81
-2.20,-9.63,0.62,9.90,-9.54,0.06,-2.38,9.84
-2.18,-9.62,0.61,9.88,-9.54,0.04,-2.37,9.83
-2.21,-9.66,0.61,9.92,-9.58,0.04,-2.43,9.88
-2.23,-9.63,0.64,9.90,-9.57,0.03,-2.43,9.88
-2.19,-9.64,0.64,9.91,-9.56,0.01,-2.43,9.86
-2.22,-9.64,0.65,9.91,-9.56,0.02,-2.46,9.87
-2.22,-9.66,0.66,9.93,-9.55,0.05,-2.47,9.87
-2.18,-9.65,0.65,9.91,-9.55,0.00,-2.42,9.85
-2.18,-9.65,0.61,9.91,-9.58,0.05,-2.43,9.88
-2.13,-9.68,0.65,9.93,-9.61,0.02,-2.42,9.91
-2.18,-9.67,0.60,9.93,-9.58,0.04,-2.50,9.90
-2.19,-9.71,0.75,9.98,-9.53,-0.00,-2.46,9.84
-2.19,-9.65,0.72,9.92,-9.58,0.04,-2.36,9.86
-2.20,-9.62,0.65,9.89,-9.53,0.00,-2.42,9.84
-2.19,-9.65,0.70,9.92,-9.54,0.03,-2.48,9.86
-2.20,-9.57,0.62,9.84,-9.51,0.04,-2.43,9.82
-2.18,-9.60,0.62,9.86,-9.51,0.02,-2.44,9.82
-2.18,-9.65,0.61,9.92,-9.55,0.02,-2.42,9.85
-2.19,-9.65,0.62,9.92,-9.57,0.04,-2.45,9.88
-2.20,-9.65,0.65,9.92,-9.56,0.04,-2.45,9.87
-2.21,-9.68,0.63,9.95,-9.54,0.04,-2.48,9.86
-2.18,-9.68,0.63,9.94,-9.56,0.06,-2.50,9.88
-2.15,-9.68,0.67,9.94,-9.55,0.04,-2.48,9.87
-2.20,-9.66,0.67,9.92,-9.56,0.01,-2.48,9.87
-2.19,-9.64,0.68,9.91,-9.54,-0.00,-2.48,9.85
-2.18,-9.62,0.64,9.88,-9.52,0.02,-2.46,9.83
-2.17,-9.62,0.66,9.88,-9.51,0.01,-2.50,9.83
-2.17,-9.58,0.66,9.85,-9.53,0.01,-2.47,9.85
-2.17,-9.60,0.66,9.87,-9.50,-0.00,-2.48,9.82
-2.17,-9.61,0.68,9.87,-9.53,-0.01,-2.48,9.85
-2.21,-9.61,0.68,9.88,-9.52,0.00,-2.46,9.83
-2.23,-9.60,0.66,9.88,-9.53,0.03,-2.47,9.85
-2.22,-9.63,0.65,9.91,-9.55,0.06,-2.50,9.87
-2.22,-9.62,0.66,9.90,-9.52,0.02,-2.49,9.84
-2.20,-9.61,0.63,9.88,-9.54,0.02,-2.49,9.86
-2.18,-9.62,0.66,9.88,-9.54,0.03,-2.48,9.86
-2.20,-9.61,0.66,9.88,-9.55,0.01,-2.50,9.88
-2.20,-9.64,0.69,9.92,-9.52,0.02,-2.50,9.85
-2.21,-9.63,0.69,9.90,-9.52,0.04,-2.50,9.84
-2.17,-9.62,0.68,9.89,-9.49,0.03,-2.49,9.81
-2.22,-9.64,0.70,9.92,-9.52,0.02,-2.48,9.84
-2.19,-9.63,0.69,9.90,-9.54,0.02,-2.48,9.86
-2.17,-9.64,0.70,9.91,-9.55,-0.00,-2.48,9.87
-2.20,-9.64,0.66,9.91,-9.52,0.02,-2.48,9.84
-2.19,-9.64,0.67,9.91,-9.51,0.00,-2.48,9.83
-2.19,-9.63,0.65,9.90,-9.53,0.01,-2.49,9.85
-2.22,-9.66,0.65,9.93,-9.54,0.02,-2.46,9.85
-2.22,-9.66,0.67,9.93,-9.55,0.02,-2.49,9.87
-2.21,-9.66,0.67,9.93,-9.55,0.04,-2.48,9.86
-2.20,-9.64,0.68,9.91,-9.54,0.03,-2.50,9.87
-2.19,-9.61,0.66,9.88,-9.53,0.03,-2.48,9.84
-2.17,-9.64,0.63,9.90,-9.54,0.02,-2.53,9.87
-2.18,-9.66,0.69,9.93,-9.53,0.04,-2.50,9.85
-2.20,-9.64,0.68,9.91,-9.54,0.02,-2.47,9.85
-2.15,-9.62,0.63,9.87,-9.57,0.03,-2.43,9.87
-2.18,-9.65,0.65,9.92,-9.53,0.00,-2.52,9.86
-2.27,-9.68,0.73,9.97,-9.58,0.03,-2.56,9.91
-2.20,-9.65,0.79,9.93,-9.52,-0.00,-2.45,9.83
-2.19,-9.57,0.76,9.84,-9.52,0.00,-2.52,9.85
-2.13,-9.56,0.65,9.81,-9.55,0.03,-2.53,9.88
-2.12,-9.65,0.60,9.90,-9.52,-0.00,-2.46,9.83
-2.11,-9.64,0.58,9.88,-9.57,0.02,-2.49,9.89
-2.21,-9.65,0.66,9.92,-9.50,0.02,-2.55,9.84
-2.24,-9.67,0.73,9.95,-9.49,0.07,-2.49,9.81
-2.28,-9.62,0.71,9.92,-9.50,0.11,-2.43,9.81
-2.21,-9.58,0.61,9.85,-9.54,0.08,-2.43,9.85
-2.22,-9.68,0.57,9.95,-9.57,0.06,-2.47,9.89
-2.19,-9.72,0.65,9.99,-9.60,0.02,-2.48,9.91
-2.18,-9.69,0.68,9.95,-9.61,0.01,-2.47,9.92
-2.15,-9.68,0.66,9.94,-9.58,0.00,-2.48,9.89
-2.17,-9.67,0.67,9.93,-9.54,-0.00,-2.51,9.87
-2.17,-9.64,0.69,9.91,-9.50,-0.01,-2.48,9.82
-2.21,-9.61,0.68,9.88,-9.50,0.03,-2.49,9.82
-2.20,-9.61,0.66,9.88,-9.50,-0.02,-2.46,9.81
-2.23,-9.60,0.65,9.88,-9.51,0.01,-2.43,9.81
-2.19,-9.58,0.65,9.85,-9.50,-0.02,-2.46,9.81
-2.17,-9.63,0.65,9.89,-9.52,0.02,-2.45,9.83
-2.19,-9.63,0.64,9.90,-9.55,0.02,-2.46,9.87
-2.16,-9.64,0.66,9.90,-9.56,-0.00,-2.46,9.87
-2.16,-9.64,0.67,9.91,-9.57,-0.00,-2.45,9.87
-2.18,-9.65,0.68,9.92,-9.55,0.01,-2.46,9.87
-2.21,-9.67,0.67,9.94,-9.57,0.04,-2.48,9.89
-2.20,-9.65,0.65,9.91,-9.56,0.02,-2.47,9.88
-2.20,-9.68,0.67,9.95,-9.58,0.06,-2.46,9.89
-2.13,-9.69,0.65,9.94,-9.61,0.00,-2.42,9.91
-2.22,-9.64,0.58,9.91,-9.60,0.05,-2.49,9.92
-2.23,-9.67,0.72,9.95,-9.55,0.02,-2.49,9.87
-2.15,-9.69,0.71,9.95,-9.57,0.02,-2.40,9.86
-2.18,-9.61,0.66,9.88,-9.54,0.01,-2.39,9.83
-2.20,-9.63,0.73,9.90,-9.54,0.02,-2.49,9.86
-2.19,-9.62,0.73,9.89,-9.52,0.02,-2.48,9.84
-2.17,-9.60,0.64,9.86,-9.54,0.03,-2.41,9.83
-2.15,-9.62,0.61,9.87,-9.54,0.04,-2.41,9.84
-2.17,-9.65,0.64,9.91,-9.55,0.03,-2.42,9.85
-2.17,-9.67,0.64,9.93,-9.57,0.01,-2.43,9.87
-2.17,-9.65,0.64,9.91,-9.56,-0.02,-2.45,9.87
-2.19,-9.66,0.64,9.92,-9.53,0.01,-2.44,9.84
-2.18,-9.64,0.64,9.91,-9.55,0.04,-2.44,9.86
-2.19,-9.61,0.67,9.88,-9.54,0.02,-2.44,9.85
-2.20,-9.64,0.64,9.91,-9.56,0.02,-2.43,9.87
-2.20,-9.66,0.67,9.93,-9.59,0.04,-2.47,9.90
-2.20,-9.68,0.68,9.94,-9.59,0.03,-2.43,9.89
-2.17,-9.61,0.66,9.88,-9.55,0.03,-2.42,9.85
-2.18,-9.66,0.67,9.93,-9.55,0.01,-2.41,9.85
-2.19,-9.65,0.65,9.92,-9.55,0.00,-2.42,9.85
-2.20,-9.64,0.66,9.91,-9.57,-0.01,-2.46,9.88
-2.22,-9.61,0.66,9.88,-9.53,0.01,-2.37,9.82
-2.20,-9.66,0.67,9.93,-9.54,0.03,-2.41,9.84
-2.18,-9.66,0.71,9.93,-9.52,0.03,-2.42,9.82
-2.17,-9.60,0.68,9.86,-9.55,0.02,-2.45,9.86
-2.18,-9.59,0.67,9.85,-9.57,0.03,-2.41,9.87
-2.17,-9.63,0.72,9.90,-9.55,0.03,-2.34,9.83
-2.19,-9.63,0.65,9.90,-9.54,0.02,-2.42,9.84
-2.16,-9.60,0.69,9.87,-9.56,0.04,-2.39,9.86
-2.17,-9.63,0.66,9.89,-9.57,0.02,-2.40,9.87
-2.14,-9.63,0.71,9.89,-9.52,0.00,-2.31,9.80
-2.13,-9.66,0.68,9.91,-9.54,0.00,-2.43,9.84
-2.19,-9.64,0.63,9.91,-9.57,0.03,-2.41,9.87
-2.20,-9.66,0.68,9.93,-9.60,0.04,-2.43,9.90
-2.20,-9.65,0.67,9.92,-9.57,0.05,-2.42,9.87
-2.22,-9.65,0.62,9.92,-9.53,0.05,-2.37,9.82
-2.24,-9.67,0.67,9.95,-9.59,0.05,-2.43,9.89
-2.21,-9.67,0.63,9.94,-9.58,0.05,-2.37,9.87
-2.20,-9.66,0.57,9.92,-9.56,0.01,-2.39,9.86
-2.25,-9.72,0.65,10.00,-9.62,0.05,-2.47,9.93
-2.29,-9.71,0.79,10.00,-9.60,0.07,-2.50,9.92
-2.23,-9.61,0.75,9.90,-9.52,0.00,-2.32,9.80
-2.18,-9.54,0.59,9.80,-9.54,0.01,-2.40,9.84
-2.16,-9.66,0.55,9.92,-9.57,-0.00,-2.43,9.87
-2.16,-9.71,0.59,9.96,-9.58,0.00,-2.32,9.86
-2.15,-9.69,0.59,9.94,-9.59,0.01,-2.47,9.90
-2.22,-9.69,0.68,9.96,-9.56,0.00,-2.51,9.89
-2.20,-9.67,0.65,9.93,-9.56,0.04,-2.34,9.84
-2.24,-9.56,0.63,9.84,-9.56,0.04,-2.34,9.84
-2.24,-9.61,0.56,9.89,-9.57,0.06,-2.41,9.87
-2.26,-9.64,0.58,9.92,-9.57,0.04,-2.37,9.86
-2.26,-9.66,0.64,9.94,-9.60,0.07,-2.38,9.89
-2.21,-9.66,0.63,9.93,-9.64,0.05,-2.35,9.92
-2.18,-9.68,0.61,9.95,-9.63,0.04,-2.37,9.91
-2.22,-9.68,0.66,9.96,-9.60,0.05,-2.32,9.88
-2.24,-9.67,0.69,9.95,-9.59,0.07,-2.34,9.87
-2.25,-9.63,0.65,9.91,-9.57,0.08,-2.30,9.84
-2.23,-9.62,0.65,9.89,-9.54,0.05,-2.33,9.82
-2.23,-9.60,0.63,9.88,-9.52,0.06,-2.32,9.80
-2.20,-9.60,0.64,9.87,-9.54,0.04,-2.32,9.82
-2.18,-9.60,0.63,9.87,-9.53,0.07,-2.30,9.80
-2.18,-9.58,0.62,9.85,-9.52,0.05,-2.33,9.81
-2.15,-9.60,0.65,9.86,-9.55,0.06,-2.35,9.84
-2.17,-9.62,0.62,9.88,-9.54,0.06,-2.34,9.83
-2.16,-9.65,0.61,9.91,-9.57,0.07,-2.32,9.85
-2.21,-9.63,0.61,9.90,-9.60,0.07,-2.33,9.88
-2.23,-9.66,0.61,9.94,-9.58,0.10,-2.32,9.85
-2.26,-9.66,0.63,9.94,-9.61,0.09,-2.33,9.89
-2.22,-9.69,0.67,9.96,-9.65,0.11,-2.29,9.92
-2.21,-9.68,0.69,9.96,-9.60,0.07,-2.31,9.87
-2.24,-9.65,0.56,9.92,-9.63,0.09,-2.40,9.93
-2.26,-9.68,0.68,9.96,-9.61,0.08,-2.32,9.88
-2.23,-9.68,0.68,9.96,-9.62,0.06,-2.27,9.88
-2.22,-9.65,0.62,9.92,-9.58,0.03,-2.34,9.87
-2.20,-9.57,0.58,9.84,-9.58,0.06,-2.33,9.85
-2.24,-9.64,0.56,9.91,-9.58,0.09,-2.35,9.86
-2.24,-9.63,0.59,9.91,-9.58,0.09,-2.38,9.87
-2.20,-9.63,0.59,9.89,-9.59,0.08,-2.28,9.85
-2.24,-9.63,0.58,9.90,-9.57,0.05,-2.30,9.85
-2.22,-9.65,0.58,9.92,-9.57,0.09,-2.30,9.84
-2.25,-9.64,0.58,9.92,-9.55,0.11,-2.32,9.82
-2.25,-9.65,0.62,9.93,-9.59,0.08,-2.32,9.87
-2.25,-9.63,0.61,9.91,-9.58,0.06,-2.36,9.87
-2.25,-9.60,0.63,9.88,-9.59,0.08,-2.35,9.87
-2.27,-9.63,0.66,9.91,-9.57,0.09,-2.32,9.84
-2.26,-9.63,0.62,9.91,-9.55,0.09,-2.30,9.82
-2.22,-9.61,0.61,9.88,-9.55,0.09,-2.30,9.82
-2.29,-9.61,0.61,9.90,-9.56,0.09,-2.32,9.84
-2.26,-9.60,0.61,9.88,-9.55,0.05,-2.31,9.83
-2.26,-9.60,0.61,9.88,-9.62,0.06,-2.30,9.89
-2.29,-9.66,0.63,9.94,-9.58,0.08,-2.29,9.85
-2.23,-9.63,0.64,9.91,-9.56,0.08,-2.29,9.83
-2.22,-9.63,0.63,9.91,-9.57,0.08,-2.30,9.85
-2.21,-9.65,0.63,9.92,-9.55,0.08,-2.31,9.82
-2.20,-9.64,0.64,9.91,-9.56,0.10,-2.28,9.83
-2.20,-9.62,0.62,9.89,-9.59,0.07,-2.32,9.86
-2.19,-9.63,0.59,9.89,-9.57,0.08,-2.32,9.85
-2.19,-9.62,0.58,9.88,-9.54,0.09,-2.30,9.81
-2.21,-9.64,0.58,9.91,-9.57,0.10,-2.29,9.84
-2.19,-9.64,0.57,9.90,-9.56,0.08,-2.30,9.83
-2.18,-9.65,0.58,9.91,-9.58,0.09,-2.31,9.86
-2.21,-9.64,0.56,9.91,-9.60,0.07,-2.29,9.87
-2.19,-9.66,0.56,9.92,-9.62,0.12,-2.32,9.89
-2.23,-9.68,0.56,9.95,-9.61,0.09,-2.29,9.88
-2.24,-9.65,0.59,9.93,-9.60,0.06,-2.29,9.87
-2.26,-9.66,0.58,9.94,-9.60,0.09,-2.31,9.88
-2.26,-9.68,0.59,9.96,-9.62,0.10,-2.29,9.89
-2.25,-9.68,0.58,9.95,-9.60,0.10,-2.27,9.87
-2.26,-9.65,0.59,9.93,-9.60,0.12,-2.30,9.87
-2.26,-9.63,0.60,9.91,-9.60,0.10,-2.30,9.87
-2.29,-9.65,0.58,9.93,-9.58,0.11,-2.27,9.84
-2.26,-9.65,0.58,9.93,-9.60,0.07,-2.29,9.86
-2.25,-9.66,0.58,9.93,-9.60,0.08,-2.30,9.87
-2.23,-9.65,0.62,9.92,-9.61,0.08,-2.27,9.88
-2.21,-9.61,0.60,9.88,-9.60,0.06,-2.25,9.86
-2.20,-9.65,0.57,9.91,-9.61,0.08,-2.28,9.88
-2.33,-9.70,0.67,10.00,-9.61,0.08,-2.37,9.90
-2.30,-9.69,0.81,10.00,-9.59,0.08,-2.25,9.85
-2.21,-9.59,0.68,9.86,-9.54,0.09,-2.15,9.78
-2.16,-9.62,0.48,9.87,-9.58,0.04,-2.39,9.88
-2.20,-9.67,0.60,9.93,-9.53,0.08,-2.14,9.76
-2.13,-9.65,0.49,9.90,-9.61,0.11,-2.22,9.86
-2.28,-9.66,0.60,9.94,-9.64,0.08,-2.42,9.94
-2.29,-9.66,0.73,9.96,-9.56,0.08,-2.25,9.82
-2.26,-9.55,0.66,9.84,-9.54,0.11,-2.21,9.80
-2.26,-9.57,0.57,9.85,-9.55,0.09,-2.21,9.81
-2.28,-9.59,0.55,9.87,-9.56,0.10,-2.29,9.83
-2.31,-9.59,0.61,9.88,-9.57,0.14,-2.27,9.83
-2.26,-9.63,0.56,9.91,-9.64,0.12,-2.27,9.90
-2.23,-9.71,0.58,9.98,-9.64,0.09,-2.25,9.90
-2.24,-9.70,0.60,9.97,-9.64,0.07,-2.25,9.90
-2.22,-9.69,0.59,9.96,-9.61,0.07,-2.26,9.87
-2.26,-9.64,0.61,9.92,-9.61,0.11,-2.25,9.87
-2.26,-9.64,0.61,9.92,-9.61,0.12,-2.23,9.86
-2.25,-9.61,0.59,9.88,-9.57,0.12,-2.24,9.83
-2.27,-9.61,0.59,9.89,-9.59,0.10,-2.25,9.85
-2.26,-9.61,0.60,9.89,-9.61,0.10,-2.23,9.86
-2.20,-9.62,0.60,9.89,-9.61,0.10,-2.26,9.88
-2.24,-9.61,0.58,9.89,-9.57,0.07,-2.23,9.82
-2.21,-9.62,0.58,9.89,-9.57,0.10,-2.25,9.83
-2.21,-9.64,0.56,9.90,-9.58,0.09,-2.27,9.85
-2.27,-9.66,0.56,9.94,-9.59,0.07,-2.26,9.86
-2.23,-9.66,0.54,9.93,-9.59,0.10,-2.25,9.85
-2.25,-9.69,0.60,9.96,-9.60,0.05,-2.27,9.86
-2.24,-9.67,0.60,9.94,-9.58,0.09,-2.22,9.84
-2.20,-9.64,0.61,9.91,-9.66,0.10,-2.21,9.91
-2.20,-9.65,0.60,9.91,-9.61,0.08,-2.24,9.87
-2.24,-9.69,0.62,9.97,-9.65,0.11,-2.29,9.92
-2.23,-9.69,0.63,9.96,-9.60,0.07,-2.27,9.86
-2.18,-9.61,0.57,9.87,-9.59,0.09,-2.17,9.83
-2.24,-9.63,0.57,9.91,-9.59,0.08,-2.29,9.86
-2.25,-9.63,0.58,9.91,-9.57,0.11,-2.27,9.83
-2.25,-9.60,0.59,9.87,-9.58,0.12,-2.27,9.85
-2.22,-9.62,0.59,9.89,-9.56,0.11,-2.26,9.82
-2.27,-9.60,0.58,9.89,-9.57,0.09,-2.22,9.82
-2.23,-9.63,0.56,9.90,-9.61,0.08,-2.23,9.87
-2.25,-9.65,0.59,9.92,-9.60,0.10,-2.27,9.87
-2.24,-9.67,0.57,9.95,-9.62,0.10,-2.23,9.88
-2.27,-9.65,0.57,9.93,-9.62,0.11,-2.24,9.88
-2.25,-9.66,0.60,9.94,-9.63,0.11,-2.26,9.90
-2.26,-9.64,0.58,9.92,-9.61,0.08,-2.26,9.87
-2.26,-9.65,0.63,9.93,-9.61,0.10,-2.26,9.87
-2.26,-9.64,0.60,9.92,-9.60,0.10,-2.26,9.86
-2.24,-9.63,0.58,9.91,-9.62,0.10,-2.23,9.87
-2.22,-9.62,0.55,9.89,-9.59,0.05,-2.25,9.86
-2.18,-9.66,0.54,9.92,-9.60,0.09,-2.25,9.86
-2.19,-9.68,0.59,9.94,-9.61,0.08,-2.26,9.87
-2.19,-9.66,0.60,9.93,-9.60,0.12,-2.23,9.86
-2.21,-9.67,0.61,9.94,-9.59,0.08,-2.23,9.85
-2.22,-9.62,0.61,9.89,-9.63,0.08,-2.25,9.89
-2.21,-9.68,0.61,9.95,-9.62,0.10,-2.25,9.88
-2.22,-9.65,0.62,9.92,-9.57,0.10,-2.20,9.82
-2.24,-9.64,0.60,9.91,-9.58,0.10,-2.24,9.84
-2.21,-9.64,0.61,9.91,-9.60,0.08,-2.23,9.85
-2.22,-9.62,0.61,9.89,-9.58,0.09,-2.24,9.84
-2.24,-9.61,0.62,9.89,-9.60,0.11,-2.23,9.85
-2.20,-9.63,0.59,9.89,-9.61,0.10,-2.23,9.86
-2.22,-9.63,0.59,9.90,-9.59,0.08,-2.24,9.85
-2.23,-9.61,0.57,9.88,-9.62,0.07,-2.23,9.87
-2.20,-9.64,0.57,9.91,-9.60,0.10,-2.23,9.86
-2.24,-9.68,0.60,9.95,-9.60,0.08,-2.21,9.85
-2.27,-9.67,0.60,9.95,-9.63,0.10,-2.24,9.89
-2.24,-9.67,0.61,9.95,-9.60,0.09,-2.23,9.86
-2.24,-9.64,0.58,9.92,-9.65,0.10,-2.24,9.90
-2.25,-9.66,0.62,9.93,-9.64,0.09,-2.24,9.90
-2.25,-9.64,0.61,9.92,-9.61,0.11,-2.25,9.87
-2.23,-9.64,0.61,9.91,-9.60,0.09,-2.23,9.86
-2.23,-9.63,0.59,9.90,-9.60,0.10,-2.23,9.85
-2.19,-9.63,0.60,9.89,-9.60,0.10,-2.23,9.85
-2.26,-9.66,0.58,9.94,-9.59,0.08,-2.26,9.85
-2.22,-9.67,0.56,9.93,-9.61,0.13,-2.22,9.87
-2.26,-9.63,0.59,9.91,-9.60,0.10,-2.25,9.86
-2.26,-9.63,0.57,9.91,-9.61,0.12,-2.26,9.87
-2.25,-9.63,0.59,9.90,-9.58,0.11,-2.25,9.85
-2.24,-9.61,0.59,9.89,-9.60,0.12,-2.29,9.87
-2.25,-9.63,0.61,9.90,-9.54,0.11,-2.20,9.79
-2.24,-9.61,0.64,9.89,-9.58,0.11,-2.33,9.87
-2.24,-9.63,0.65,9.91,-9.56,0.11,-2.29,9.83
-2.24,-9.61,0.56,9.89,-9.62,0.12,-2.15,9.85
-2.24,-9.63,0.60,9.91,-9.63,0.13,-2.29,9.90
-2.22,-9.63,0.64,9.90,-9.60,0.10,-2.18,9.85
-2.26,-9.67,0.56,9.95,-9.65,0.10,-2.25,9.91
-2.24,-9.66,0.57,9.93,-9.65,0.13,-2.21,9.90
-2.28,-9.71,0.53,9.99,-9.63,0.14,-2.26,9.89
-2.32,-9.76,0.71,10.06,-9.62,0.15,-2.26,9.89
-2.30,-9.67,0.74,9.97,-9.56,0.11,-2.14,9.79
-2.20,-9.55,0.44,9.81,-9.60,0.13,-2.34,9.88
-2.20,-9.73,0.58,10.00,-9.57,0.08,-2.15,9.81
-2.18,-9.68,0.51,9.93,-9.57,0.12,-2.17,9.82
-2.25,-9.68,0.54,9.95,-9.62,0.13,-2.35,9.91
-2.28,-9.67,0.75,9.96,-9.59,0.13,-2.35,9.87
-2.23,-9.54,0.70,9.83,-9.54,0.10,-2.22,9.80
-2.24,-9.56,0.59,9.84,-9.55,0.11,-2.18,9.80
-2.25,-9.56,0.55,9.84,-9.58,0.10,-2.25,9.84
-2.31,-9.61,0.57,9.90,-9.59,0.11,-2.30,9.86
-2.25,-9.64,0.61,9.91,-9.62,0.15,-2.24,9.88
-2.25,-9.67,0.58,9.94,-9.64,0.12,-2.24,9.90
-2.22,-9.69,0.62,9.96,-9.61,0.12,-2.21,9.86
-2.25,-9.67,0.64,9.95,-9.62,0.12,-2.24,9.88
-2.26,-9.62,0.65,9.90,-9.60,0.13,-2.23,9.86
-2.24,-9.61,0.63,9.88,-9.59,0.13,-2.21,9.84
-2.26,-9.61,0.62,9.89,-9.58,0.12,-2.22,9.83
-2.25,-9.61,0.60,9.89,-9.56,0.09,-2.25,9.82
-2.24,-9.62,0.59,9.90,-9.56,0.07,-2.20,9.81
-2.21,-9.62,0.61,9.89,-9.57,0.08,-2.23,9.83
-2.22,-9.63,0.63,9.90,-9.58,0.11,-2.22,9.84
-2.22,-9.64,0.57,9.91,-9.60,0.11,-2.22,9.86
-2.26,-9.65,0.53,9.93,-9.59,0.12,-2.23,9.85
-2.29,-9.64,0.62,9.93,-9.61,0.11,-2.21,9.86
-2.29,-9.66,0.59,9.94,-9.62,0.13,-2.23,9.88
-2.29,-9.66,0.60,9.95,-9.66,0.12,-2.24,9.92
-2.30,-9.69,0.59,9.97,-9.64,0.15,-2.22,9.90
-2.28,-9.66,0.60,9.95,-9.62,0.14,-2.20,9.87
-2.24,-9.66,0.61,9.93,-9.59,0.16,-2.21,9.84
-2.27,-9.69,0.56,9.97,-9.65,0.15,-2.27,9.92
-2.29,-9.70,0.68,9.99,-9.63,0.11,-2.27,9.89
-2.22,-9.64,0.57,9.91,-9.60,0.08,-2.19,9.85
-2.26,-9.64,0.55,9.92,-9.60,0.11,-2.20,9.85
-2.25,-9.63,0.56,9.90,-9.61,0.11,-2.21,9.86
-2.25,-9.63,0.59,9.91,-9.59,0.12,-2.23,9.85
-2.25,-9.61,0.59,9.89,-9.57,0.12,-2.27,9.84
-2.23,-9.64,0.61,9.91,-9.59,0.14,-2.26,9.85
-2.22,-9.64,0.57,9.91,-9.59,0.14,-2.19,9.84
-2.25,-9.63,0.57,9.91,-9.60,0.10,-2.25,9.86
-2.24,-9.65,0.60,9.92,-9.62,0.15,-2.29,9.89
-2.24,-9.67,0.58,9.94,-9.56,0.15,-2.21,9.81
-2.27,-9.62,0.59,9.90,-9.62,0.13,-2.35,9.90
-2.24,-9.63,0.62,9.91,-9.57,0.12,-2.24,9.82
-2.24,-9.65,0.59,9.92,-9.57,0.13,-2.18,9.82
-2.26,-9.64,0.64,9.93,-9.63,0.14,-2.30,9.91
-2.25,-9.59,0.60,9.87,-9.56,0.12,-2.21,9.81
-2.24,-9.61,0.60,9.89,-9.61,0.14,-2.21,9.86
-2.24,-9.62,0.68,9.90,-9.61,0.12,-2.21,9.86
-2.25,-9.63,0.54,9.90,-9.56,0.14,-2.20,9.81
-2.24,-9.63,0.60,9.91,-9.59,0.12,-2.26,9.86
-2.26,-9.65,0.64,9.93,-9.63,0.16,-2.26,9.89
-2.27,-9.63,0.60,9.91,-9.60,0.16,-2.22,9.85
-2.25,-9.62,0.57,9.90,-9.63,0.15,-2.21,9.88
-2.28,-9.65,0.62,9.93,-9.65,0.12,-2.29,9.92
-2.26,-9.64,0.57,9.92,-9.58,0.14,-2.22,9.84
-2.25,-9.63,0.57,9.90,-9.61,0.11,-2.27,9.88
-2.25,-9.65,0.61,9.93,-9.59,0.07,-2.26,9.85
-2.26,-9.65,0.58,9.93,-9.57,0.13,-2.23,9.82
-2.23,-9.63,0.58,9.90,-9.56,0.11,-2.25,9.83
-2.22,-9.65,0.61,9.92,-9.60,0.09,-2.22,9.85
-2.23,-9.63,0.57,9.90,-9.59,0.12,-2.22,9.85
-2.25,-9.63,0.57,9.90,-9.58,0.12,-2.23,9.84
-2.24,-9.65,0.59,9.93,-9.61,0.10,-2.26,9.87
-2.27,-9.64,0.58,9.92,-9.60,0.13,-2.24,9.86
-2.24,-9.65,0.57,9.92,-9.61,0.11,-2.26,9.87
-2.31,-9.62,0.57,9.91,-9.60,0.11,-2.28,9.86
-2.25,-9.63,0.57,9.90,-9.61,0.14,-2.25,9.87
-2.30,-9.62,0.59,9.91,-9.58,0.15,-2.29,9.85
-2.24,-9.61,0.61,9.88,-9.57,0.13,-2.27,9.84
-2.26,-9.64,0.58,9.92,-9.60,0.14,-2.29,9.87
-2.23,-9.63,0.59,9.90,-9.57,0.15,-2.23,9.83
-2.26,-9.63,0.59,9.91,-9.58,0.12,-2.27,9.85
-2.27,-9.62,0.58,9.90,-9.60,0.14,-2.24,9.86
-2.26,-9.64,0.57,9.92,-9.59,0.13,-2.24,9.85
-2.28,-9.61,0.57,9.90,-9.62,0.14,-2.27,9.88
-2.29,-9.64,0.57,9.92,-9.62,0.12,-2.27,9.88
-2.27,-9.66,0.56,9.94,-9.60,0.13,-2.27,9.87
-2.29,-9.66,0.55,9.94,-9.59,0.12,-2.25,9.85
-2.27,-9.65,0.54,9.93,-9.60,0.12,-2.27,9.87
-2.24,-9.65,0.55,9.92,-9.58,0.12,-2.29,9.85
-2.24,-9.67,0.56,9.94,-9.61,0.13,-2.24,9.87
-2.25,-9.64,0.59,9.92,-9.61,0.11,-2.28,9.88
-2.24,-9.65,0.58,9.93,-9.60,0.11,-2.20,9.85
-2.26,-9.67,0.58,9.94,-9.60,0.13,-2.23,9.86
-2.26,-9.69,0.56,9.97,-9.64,0.12,-2.25,9.89
-2.26,-9.64,0.54,9.91,-9.63,0.12,-2.29,9.90
-2.27,-9.67,0.57,9.95,-9.63,0.14,-2.29,9.90
-2.26,-9.67,0.56,9.95,-9.60,0.11,-2.25,9.86
-2.29,-9.64,0.53,9.92,-9.60,0.16,-2.26,9.86
-2.31,-9.68,0.57,9.96,-9.62,0.16,-2.27,9.88
-2.36,-9.71,0.73,10.02,-9.60,0.16,-2.30,9.87
-2.34,-9.62,0.73,9.93,-9.59,0.14,-2.13,9.83
-2.25,-9.53,0.47,9.80,-9.62,0.14,-2.37,9.91
-2.22,-9.70,0.56,9.96,-9.59,0.11,-2.26,9.85
-2.21,-9.65,0.52,9.92,-9.59,0.11,-2.16,9.83
-2.26,-9.67,0.55,9.95,-9.60,0.11,-2.35,9.89
-2.29,-9.68,0.70,9.97,-9.57,0.08,-2.31,9.85
-2.25,-9.61,0.68,9.89,-9.55,0.11,-2.23,9.81
-2.26,-9.56,0.58,9.84,-9.55,0.11,-2.23,9.81
-2.27,-9.59,0.51,9.87,-9.57,0.11,-2.26,9.84
-2.29,-9.61,0.53,9.89,-9.58,0.14,-2.26,9.85
-2.30,-9.66,0.55,9.94,-9.61,0.12,-2.29,9.88
-2.19,-9.66,0.56,9.92,-9.65,0.15,-2.27,9.92
-2.24,-9.72,0.57,9.99,-9.64,0.14,-2.25,9.90
-2.25,-9.69,0.57,9.97,-9.65,0.13,-2.26,9.91
-2.27,-9.68,0.58,9.96,-9.61,0.17,-2.27,9.88
-2.28,-9.65,0.58,9.93,-9.61,0.11,-2.28,9.88
-2.26,-9.65,0.59,9.93,-9.61,0.15,-2.24,9.86
-2.26,-9.63,0.56,9.91,-9.58,0.10,-2.25,9.84
-2.25,-9.63,0.57,9.90,-9.60,0.12,-2.24,9.85
-2.25,-9.61,0.57,9.89,-9.54,0.10,-2.25,9.80
-2.25,-9.59,0.56,9.86,-9.55,0.13,-2.26,9.81
-2.26,-9.60,0.58,9.88,-9.55,0.12,-2.29,9.82
-2.25,-9.62,0.57,9.90,-9.56,0.11,-2.28,9.83
-2.25,-9.60,0.52,9.87,-9.55,0.10,-2.27,9.82
-2.26,-9.63,0.56,9.90,-9.58,0.10,-2.28,9.85
-2.25,-9.65,0.54,9.92,-9.60,0.10,-2.30,9.88
-2.29,-9.69,0.53,9.97,-9.64,0.11,-2.28,9.90
-2.21,-9.70,0.55,9.96,-9.68,0.11,-2.28,9.94
-2.25,-9.68,0.53,9.96,-9.58,0.12,-2.28,9.85
-2.29,-9.69,0.58,9.98,-9.66,0.10,-2.35,9.94
-2.26,-9.70,0.61,9.98,-9.61,0.11,-2.27,9.87
-2.24,-9.65,0.61,9.92,-9.56,0.07,-2.29,9.83
-2.25,-9.62,0.54,9.89,-9.56,0.09,-2.34,9.84
-2.26,-9.60,0.52,9.88,-9.59,0.11,-2.31,9.86
-2.25,-9.60,0.54,9.87,-9.57,0.14,-2.34,9.86
-2.28,-9.61,0.54,9.89,-9.59,0.11,-2.35,9.87
-2.21,-9.60,0.54,9.87,-9.56,0.12,-2.26,9.83
-2.22,-9.62,0.53,9.89,-9.60,0.11,-2.27,9.87
-2.25,-9.63,0.53,9.91,-9.59,0.10,-2.31,9.86
-2.22,-9.66,0.57,9.93,-9.59,0.10,-2.34,9.87
-2.28,-9.66,0.56,9.94,-9.56,0.07,-2.34,9.84
-2.23,-9.68,0.58,9.95,-9.58,0.10,-2.33,9.86
-2.27,-9.64,0.58,9.92,-9.58,0.10,-2.34,9.86
-2.25,-9.65,0.59,9.92,-9.58,0.10,-2.32,9.86
-2.24,-9.63,0.54,9.90,-9.58,0.09,-2.34,9.86
-2.27,-9.63,0.57,9.91,-9.57,0.09,-2.33,9.85
-2.22,-9.63,0.58,9.90,-9.62,0.07,-2.40,9.91
-2.26,-9.63,0.58,9.91,-9.57,0.08,-2.29,9.85
-2.25,-9.66,0.58,9.93,-9.60,0.09,-2.33,9.88
-2.26,-9.64,0.59,9.92,-9.58,0.08,-2.35,9.86
-2.27,-9.65,0.57,9.93,-9.58,0.11,-2.36,9.86
-2.25,-9.66,0.58,9.93,-9.58,0.11,-2.36,9.86
-2.26,-9.63,0.59,9.91,-9.57,0.14,-2.37,9.86
-2.24,-9.64,0.57,9.92,-9.57,0.14,-2.36,9.86
-2.26,-9.63,0.58,9.91,-9.55,0.08,-2.36,9.84
-2.26,-9.61,0.57,9.89,-9.55,0.09,-2.37,9.84
-2.24,-9.64,0.57,9.92,-9.55,0.10,-2.35,9.83
-2.25,-9.61,0.56,9.89,-9.53,0.10,-2.36,9.82
-2.25,-9.65,0.54,9.93,-9.57,0.10,-2.37,9.86
-2.24,-9.66,0.53,9.93,-9.58,0.09,-2.38,9.87
-2.24,-9.65,0.56,9.92,-9.60,0.11,-2.37,9.88
-2.25,-9.64,0.55,9.91,-9.58,0.08,-2.37,9.87
-2.25,-9.65,0.58,9.93,-9.57,0.11,-2.39,9.86
-2.26,-9.65,0.59,9.92,-9.58,0.08,-2.40,9.87
-2.24,-9.65,0.59,9.92,-9.54,0.10,-2.42,9.85
-2.26,-9.63,0.55,9.91,-9.53,0.08,-2.40,9.83
-2.26,-9.62,0.56,9.90,-9.54,0.06,-2.42,9.84
-2.23,-9.63,0.55,9.90,-9.57,0.12,-2.40,9.87
-2.26,-9.64,0.58,9.92,-9.57,0.09,-2.40,9.87
-2.26,-9.64,0.57,9.92,-9.55,0.10,-2.39,9.85
-2.25,-9.65,0.55,9.92,-9.59,0.11,-2.43,9.90
-2.26,-9.63,0.56,9.91,-9.57,0.08,-2.43,9.88
-2.22,-9.63,0.59,9.90,-9.56,0.11,-2.40,9.86
-2.25,-9.62,0.58,9.90,-9.55,0.07,-2.41,9.85
-2.24,-9.61,0.58,9.89,-9.56,0.09,-2.42,9.86
-2.21,-9.63,0.60,9.89,-9.54,0.08,-2.38,9.83
-2.24,-9.64,0.60,9.91,-9.54,0.12,-2.42,9.84
-2.24,-9.63,0.59,9.90,-9.57,0.08,-2.42,9.87
-2.28,-9.62,0.62,9.91,-9.56,0.08,-2.40,9.85
-2.24,-9.63,0.61,9.91,-9.53,0.10,-2.40,9.83
-2.23,-9.63,0.60,9.90,-9.55,0.08,-2.40,9.85
-2.27,-9.63,0.58,9.92,-9.57,0.10,-2.43,9.88
-2.24,-9.64,0.58,9.92,-9.58,0.11,-2.43,9.89
-2.22,-9.63,0.56,9.89,-9.56,0.10,-2.39,9.85
-2.23,-9.65,0.57,9.92,-9.54,0.08,-2.42,9.85
-2.30,-9.68,0.58,9.96,-9.54,0.09,-2.47,9.86
-2.29,-9.65,0.70,9.94,-9.57,0.10,-2.47,9.88
-2.27,-9.58,0.74,9.87,-9.50,0.06,-2.38,9.80
-2.18,-9.55,0.61,9.81,-9.54,0.06,-2.48,9.86
-2.19,-9.62,0.53,9.88,-9.50,0.05,-2.40,9.80
-2.16,-9.66,0.61,9.92,-9.56,0.04,-2.43,9.87
-2.20,-9.63,0.56,9.89,-9.54,0.04,-2.55,9.88
-2.28,-9.65,0.69,9.94,-9.49,0.08,-2.45,9.80
-2.32,-9.60,0.67,9.90,-9.52,0.11,-2.41,9.82
-2.31,-9.57,0.57,9.86,-9.50,0.11,-2.38,9.80
-2.26,-9.65,0.50,9.92,-9.57,0.14,-2.45,9.88
-2.25,-9.72,0.57,9.99,-9.61,0.08,-2.45,9.92
-2.23,-9.72,0.60,9.99,-9.64,0.08,-2.43,9.94
-2.19,-9.69,0.57,9.95,-9.61,0.05,-2.44,9.92
-2.22,-9.68,0.61,9.96,-9.60,0.05,-2.45,9.90
-2.25,-9.66,0.66,9.94,-9.55,0.07,-2.43,9.86
-2.24,-9.62,0.66,9.90,-9.54,0.07,-2.46,9.85
-2.25,-9.62,0.66,9.90,-9.54,0.08,-2.42,9.84
-2.26,-9.61,0.61,9.89,-9.53,0.09,-2.40,9.83
-2.23,-9.61,0.58,9.88,-9.52,0.09,-2.38,9.81
-2.23,-9.62,0.57,9.89,-9.52,0.06,-2.38,9.81
-2.21,-9.61,0.56,9.87,-9.54,0.05,-2.39,9.83
-2.23,-9.59,0.55,9.86,-9.54,0.06,-2.44,9.85
-2.24,-9.63,0.54,9.90,-9.53,0.03,-2.41,9.83
-2.23,-9.65,0.55,9.92,-9.54,0.07,-2.45,9.85
-2.27,-9.66,0.58,9.94,-9.57,0.07,-2.46,9.88
-2.25,-9.66,0.59,9.94,-9.56,0.06,-2.43,9.86
-2.20,-9.65,0.59,9.92,-9.58,0.07,-2.42,9.88
-2.16,-9.64,0.59,9.90,-9.56,0.06,-2.37,9.85
-2.22,-9.63,0.53,9.89,-9.62,0.08,-2.54,9.95
-2.26,-9.68,0.71,9.97,-9.55,0.04,-2.46,9.86
-2.22,-9.62,0.60,9.89,-9.54,0.10,-2.36,9.83
-2.23,-9.61,0.56,9.88,-9.52,0.06,-2.44,9.83
-2.24,-9.64,0.59,9.91,-9.51,0.09,-2.46,9.82
-2.28,-9.60,0.66,9.89,-9.55,0.09,-2.45,9.86
-2.25,-9.59,0.50,9.86,-9.53,0.07,-2.45,9.84
-2.20,-9.60,0.47,9.86,-9.51,0.09,-2.41,9.81
-2.22,-9.66,0.53,9.92,-9.55,0.10,-2.44,9.86
-2.22,-9.63,0.54,9.89,-9.55,0.05,-2.46,9.86
-2.21,-9.63,0.56,9.90,-9.52,0.05,-2.46,9.84
-2.23,-9.62,0.58,9.89,-9.52,0.05,-2.45,9.83
-2.21,-9.64,0.62,9.90,-9.55,0.06,-2.44,9.86
-2.24,-9.63,0.63,9.91,-9.56,0.04,-2.41,9.85
-2.22,-9.62,0.62,9.89,-9.55,0.07,-2.41,9.85
-2.19,-9.64,0.61,9.90,-9.53,0.06,-2.44,9.84
-2.22,-9.63,0.61,9.91,-9.54,0.08,-2.42,9.85
-2.24,-9.63,0.58,9.90,-9.55,0.09,-2.41,9.86
-2.23,-9.64,0.58,9.91,-9.55,0.05,-2.46,9.86
-2.24,-9.67,0.57,9.94,-9.54,0.06,-2.43,9.84
-2.24,-9.64,0.56,9.91,-9.54,0.07,-2.43,9.84
-2.28,-9.65,0.57,9.93,-9.56,0.08,-2.45,9.87
-2.27,-9.67,0.58,9.95,-9.57,0.09,-2.42,9.87
-2.28,-9.63,0.59,9.92,-9.56,0.10,-2.44,9.86
-2.26,-9.65,0.58,9.93,-9.56,0.08,-2.46,9.87
-2.25,-9.64,0.59,9.91,-9.55,0.08,-2.46,9.87
-2.23,-9.66,0.60,9.93,-9.56,0.06,-2.45,9.87
-2.23,-9.64,0.60,9.92,-9.53,0.06,-2.45,9.84
-2.22,-9.61,0.61,9.88,-9.50,0.07,-2.44,9.80
-2.24,-9.63,0.59,9.91,-9.54,0.07,-2.44,9.85
-2.25,-9.67,0.58,9.94,-9.52,0.05,-2.40,9.82
-2.25,-9.65,0.56,9.92,-9.54,0.03,-2.42,9.85
-2.24,-9.64,0.57,9.92,-9.56,0.06,-2.42,9.86
-2.23,-9.66,0.56,9.93,-9.54,0.08,-2.42,9.84
-2.24,-9.65,0.58,9.92,-9.55,0.06,-2.40,9.85
-2.23,-9.63,0.57,9.90,-9.56,0.06,-2.42,9.86
-2.22,-9.66,0.60,9.93,-9.55,0.06,-2.42,9.85
-2.27,-9.65,0.57,9.93,-9.54,0.06,-2.44,9.85
-2.23,-9.64,0.58,9.91,-9.56,0.07,-2.44,9.87
-2.27,-9.63,0.60,9.91,-9.54,0.11,-2.44,9.85
-2.26,-9.63,0.57,9.91,-9.54,0.10,-2.45,9.85
-2.26,-9.63,0.58,9.91,-9.55,0.10,-2.43,9.86
-2.28,-9.64,0.55,9.92,-9.54,0.10,-2.43,9.84
-2.25,-9.63,0.54,9.91,-9.56,0.11,-2.47,9.88
-2.27,-9.65,0.53,9.93,-9.56,0.08,-2.46,9.87
-2.25,-9.64,0.56,9.91,-9.57,0.10,-2.38,9.86
-2.26,-9.63,0.52,9.90,-9.56,0.08,-2.39,9.86
-2.26,-9.65,0.56,9.92,-9.54,0.08,-2.45,9.85
-2.32,-9.71,0.58,10.00,-9.56,0.10,-2.48,9.88
-2.30,-9.67,0.71,9.96,-9.52,0.08,-2.42,9.82
-2.23,-9.59,0.57,9.86,-9.50,0.09,-2.32,9.78
-2.18,-9.54,0.53,9.80,-9.57,0.06,-2.48,9.89
-2.20,-9.66,0.50,9.92,-9.56,0.05,-2.40,9.86
-2.18,-9.68,0.57,9.94,-9.58,0.06,-2.40,9.88
-2.28,-9.68,0.61,9.97,-9.55,0.07,-2.51,9.87
-2.30,-9.65,0.66,9.94,-9.54,0.07,-2.47,9.86
-2.32,-9.59,0.61,9.88,-9.52,0.12,-2.37,9.81
-2.29,-9.58,0.52,9.87,-9.56,0.11,-2.38,9.85
-2.31,-9.64,0.48,9.93,-9.59,0.11,-2.39,9.88
-2.28,-9.71,0.56,9.99,-9.59,0.09,-2.40,9.89
-2.21,-9.71,0.58,9.98,-9.60,0.09,-2.41,9.90
-2.23,-9.69,0.54,9.96,-9.61,0.10,-2.40,9.91
-2.22,-9.66,0.56,9.92,-9.58,0.09,-2.41,9.88
-2.21,-9.64,0.59,9.91,-9.56,0.11,-2.42,9.86
-2.27,-9.63,0.60,9.91,-9.53,0.07,-2.40,9.83
-2.28,-9.59,0.58,9.87,-9.52,0.11,-2.39,9.82
-2.28,-9.60,0.58,9.88,-9.53,0.11,-2.39,9.82
-2.28,-9.60,0.56,9.88,-9.53,0.11,-2.36,9.82
-2.25,-9.59,0.58,9.87,-9.55,0.09,-2.37,9.84
-2.27,-9.62,0.54,9.90,-9.54,0.09,-2.37,9.83
-2.27,-9.63,0.56,9.91,-9.58,0.09,-2.43,9.89
-2.25,-9.66,0.57,9.94,-9.55,0.09,-2.40,9.84
-2.32,-9.65,0.54,9.93,-9.53,0.09,-2.37,9.82
-2.36,-9.64,0.57,9.94,-9.58,0.07,-2.39,9.87
-2.28,-9.65,0.58,9.93,-9.59,0.07,-2.40,9.89
-2.29,-9.68,0.55,9.96,-9.58,0.10,-2.38,9.87
-2.21,-9.67,0.53,9.94,-9.60,0.10,-2.36,9.89
-2.23,-9.66,0.52,9.93,-9.53,0.07,-2.30,9.80
-2.27,-9.71,0.57,9.98,-9.62,0.08,-2.52,9.94
-2.25,-9.67,0.65,9.95,-9.58,0.11,-2.30,9.85
-2.23,-9.61,0.56,9.88,-9.54,0.08,-2.35,9.83
-2.27,-9.63,0.60,9.91,-9.53,0.07,-2.39,9.82
-2.29,-9.61,0.64,9.90,-9.53,0.08,-2.44,9.84
-2.24,-9.59,0.49,9.86,-9.52,0.11,-2.40,9.82
-2.23,-9.62,0.48,9.88,-9.54,0.11,-2.35,9.82
-2.20,-9.63,0.50,9.89,-9.57,0.09,-2.37,9.86
-2.22,-9.65,0.54,9.91,-9.59,0.08,-2.37,9.88
-2.22,-9.69,0.51,9.96,-9.57,0.09,-2.40,9.87
-2.24,-9.68,0.55,9.95,-9.60,0.10,-2.39,9.89
-2.25,-9.66,0.55,9.94,-9.59,0.11,-2.40,9.88
-2.29,-9.66,0.58,9.94,-9.60,0.10,-2.41,9.90
-2.29,-9.66,0.59,9.94,-9.59,0.09,-2.39,9.89
-2.30,-9.63,0.57,9.92,-9.57,0.07,-2.40,9.87
-2.26,-9.63,0.57,9.91,-9.58,0.08,-2.39,9.88
-2.23,-9.64,0.56,9.91,-9.57,0.09,-2.37,9.87
-2.23,-9.63,0.56,9.90,-9.57,0.07,-2.35,9.86
-2.24,-9.67,0.56,9.94,-9.57,0.06,-2.39,9.86
-2.24,-9.64,0.56,9.91,-9.57,0.07,-2.37,9.85
-2.28,-9.65,0.58,9.93,-9.59,0.06,-2.37,9.88
-2.25,-9.65,0.58,9.93,-9.57,0.08,-2.37,9.86
-2.25,-9.66,0.56,9.93,-9.56,0.10,-2.35,9.85
-2.24,-9.65,0.57,9.93,-9.57,0.09,-2.37,9.86
-2.25,-9.61,0.58,9.89,-9.57,0.10,-2.38,9.86
-2.24,-9.61,0.54,9.88,-9.56,0.10,-2.37,9.85
-2.24,-9.64,0.59,9.91,-9.56,0.07,-2.36,9.85
-2.24,-9.63,0.56,9.90,-9.56,0.10,-2.37,9.85
-2.25,-9.58,0.56,9.86,-9.56,0.08,-2.33,9.84
-2.23,-9.63,0.59,9.90,-9.57,0.08,-2.36,9.85
-2.25,-9.62,0.59,9.90,-9.55,0.08,-2.32,9.83
-2.24,-9.64,0.59,9.91,-9.55,0.10,-2.32,9.83
-2.21,-9.65,0.58,9.91,-9.55,0.09,-2.32,9.83
-2.25,-9.64,0.60,9.92,-9.57,0.09,-2.32,9.85
-2.27,-9.66,0.59,9.94,-9.61,0.09,-2.36,9.90
-2.28,-9.65,0.55,9.93,-9.59,0.08,-2.36,9.88
-2.26,-9.68,0.55,9.96,-9.58,0.07,-2.38,9.87
-2.28,-9.65,0.55,9.93,-9.59,0.07,-2.35,9.87
-2.26,-9.65,0.55,9.92,-9.57,0.09,-2.37,9.86
-2.24,-9.66,0.56,9.94,-9.58,0.07,-2.35,9.87
-2.25,-9.65,0.56,9.92,-9.57,0.08,-2.37,9.86
-2.26,-9.65,0.58,9.93,-9.59,0.08,-2.39,9.89
-2.23,-9.67,0.59,9.94,-9.60,0.07,-2.37,9.89
-2.21,-9.64,0.59,9.91,-9.58,0.10,-2.38,9.87
-2.27,-9.67,0.61,9.95,-9.57,0.08,-2.34,9.85
-2.26,-9.63,0.59,9.91,-9.56,0.08,-2.34,9.84
-2.25,-9.65,0.58,9.93,-9.57,0.11,-2.34,9.86
-2.28,-9.63,0.55,9.91,-9.60,0.09,-2.38,9.89
-2.25,-9.67,0.56,9.94,-9.59,0.11,-2.35,9.88
-2.22,-9.64,0.51,9.90,-9.58,0.09,-2.32,9.86
-2.27,-9.69,0.52,9.96,-9.59,0.12,-2.34,9.87
-2.37,-9.72,0.62,10.02,-9.59,0.14,-2.41,9.88
-2.32,-9.71,0.78,10.01,-9.58,0.10,-2.38,9.87
-2.24,-9.54,0.57,9.81,-9.54,0.12,-2.26,9.81
-2.21,-9.56,0.46,9.82,-9.62,0.08,-2.40,9.92
-2.23,-9.69,0.52,9.96,-9.55,0.06,-2.21,9.80
-2.20,-9.67,0.48,9.93,-9.57,0.13,-2.30,9.84
-2.26,-9.71,0.65,9.99,-9.59,0.08,-2.46,9.90
-2.27,-9.62,0.66,9.91,-9.56,0.14,-2.32,9.84
-2.24,-9.56,0.63,9.84,-9.52,0.11,-2.27,9.79
-2.24,-9.55,0.51,9.82,-9.52,0.11,-2.26,9.79
-2.26,-9.61,0.55,9.89,-9.56,0.09,-2.36,9.84
-2.32,-9.62,0.53,9.91,-9.57,0.13,-2.31,9.84
-2.27,-9.69,0.57,9.96,-9.63,0.10,-2.35,9.91
-2.25,-9.68,0.56,9.96,-9.63,0.08,-2.33,9.91
-2.24,-9.73,0.56,10.00,-9.62,0.08,-2.31,9.89
-2.24,-9.68,0.60,9.96,-9.61,0.07,-2.35,9.89
-2.27,-9.68,0.60,9.96,-9.59,0.10,-2.31,9.86
-2.27,-9.67,0.60,9.95,-9.56,0.11,-2.30,9.84
-2.24,-9.62,0.59,9.89,-9.58,0.07,-2.27,9.84
-2.22,-9.64,0.61,9.91,-9.58,0.09,-2.27,9.84
-2.26,-9.61,0.58,9.89,-9.56,0.09,-2.28,9.83
-2.23,-9.60,0.59,9.88,-9.58,0.08,-2.25,9.84
-2.23,-9.65,0.57,9.92,-9.60,0.08,-2.28,9.86
-2.21,-9.64,0.55,9.90,-9.60,0.09,-2.28,9.86
-2.23,-9.65,0.55,9.92,-9.58,0.09,-2.27,9.84
-2.25,-9.67,0.59,9.95,-9.60,0.11,-2.28,9.87
-2.27,-9.66,0.58,9.94,-9.59,0.12,-2.29,9.86
-2.29,-9.67,0.58,9.95,-9.63,0.11,-2.27,9.90
-2.26,-9.68,0.60,9.96,-9.62,0.13,-2.26,9.88
-2.29,-9.67,0.58,9.96,-9.61,0.10,-2.27,9.88
-2.27,-9.67,0.64,9.96,-9.58,0.10,-2.24,9.84
-2.27,-9.65,0.57,9.93,-9.61,0.14,-2.31,9.88
-2.31,-9.69,0.65,9.98,-9.61,0.13,-2.32,9.88
-2.26,-9.63,0.69,9.92,-9.57,0.08,-2.24,9.83
-2.21,-9.61,0.61,9.88,-9.57,0.06,-2.27,9.84
-2.21,-9.61,0.53,9.88,-9.54,0.09,-2.28,9.81
-2.29,-9.62,0.55,9.90,-9.56,0.08,-2.29,9.83
-2.25,-9.65,0.55,9.93,-9.62,0.14,-2.29,9.89
-2.23,-9.66,0.58,9.93,-9.58,0.11,-2.24,9.84
-2.22,-9.63,0.56,9.90,-9.59,0.10,-2.27,9.86
-2.26,-9.66,0.55,9.93,-9.60,0.12,-2.24,9.86
-2.25,-9.66,0.55,9.93,-9.62,0.11,-2.28,9.88
-2.30,-9.65,0.54,9.93,-9.59,0.12,-2.31,9.87
-2.28,-9.66,0.56,9.94,-9.61,0.12,-2.31,9.88
-2.27,-9.67,0.61,9.95,-9.60,0.09,-2.29,9.87
-2.26,-9.66,0.58,9.94,-9.58,0.07,-2.29,9.85
-2.26,-9.64,0.58,9.92,-9.59,0.10,-2.29,9.86
-2.24,-9.60,0.56,9.88,-9.57,0.09,-2.27,9.84
-2.23,-9.64,0.52,9.91,-9.58,0.09,-2.28,9.85
-2.26,-9.62,0.56,9.90,-9.60,0.08,-2.29,9.87
-2.25,-9.67,0.54,9.94,-9.59,0.07,-2.24,9.85
-2.26,-9.67,0.56,9.95,-9.58,0.10,-2.29,9.85
-2.27,-9.67,0.60,9.96,-9.57,0.10,-2.27,9.84
-2.28,-9.67,0.59,9.95,-9.57,0.12,-2.27,9.84
-2.26,-9.65,0.57,9.92,-9.60,0.10,-2.24,9.86
-2.26,-9.62,0.55,9.89,-9.60,0.14,-2.24,9.85
-2.27,-9.63,0.56,9.91,-9.61,0.11,-2.21,9.86
-2.25,-9.63,0.54,9.90,-9.60,0.13,-2.24,9.86
-2.23,-9.61,0.55,9.88,-9.63,0.11,-2.26,9.89
-2.26,-9.65,0.58,9.93,-9.60,0.09,-2.28,9.87
-2.23,-9.64,0.56,9.91,-9.58,0.10,-2.23,9.83
-2.24,-9.60,0.59,9.88,-9.59,0.09,-2.28,9.86
-2.27,-9.66,0.58,9.94,-9.59,0.10,-2.24,9.85
-2.25,-9.61,0.58,9.89,-9.56,0.11,-2.26,9.82
-2.27,-9.65,0.59,9.93,-9.58,0.09,-2.23,9.83
-2.28,-9.64,0.56,9.92,-9.60,0.10,-2.26,9.86
-2.29,-9.63,0.56,9.91,-9.57,0.10,-2.25,9.83
-2.29,-9.64,0.58,9.92,-9.58,0.12,-2.28,9.85
-2.31,-9.65,0.57,9.94,-9.61,0.15,-2.26,9.87
-2.27,-9.67,0.55,9.95,-9.62,0.13,-2.29,9.88
-2.30,-9.66,0.55,9.95,-9.63,0.10,-2.27,9.89
-2.31,-9.66,0.52,9.95,-9.60,0.12,-2.28,9.87
-2.26,-9.64,0.54,9.91,-9.60,0.09,-2.27,9.86
-2.26,-9.67,0.54,9.95,-9.60,0.09,-2.27,9.87
-2.24,-9.64,0.60,9.91,-9.58,0.09,-2.25,9.84
-2.20,-9.62,0.57,9.89,-9.59,0.10,-2.26,9.86
-2.24,-9.65,0.57,9.92,-9.57,0.11,-2.26,9.83
-2.26,-9.64,0.57,9.91,-9.57,0.10,-2.25,9.83
-2.25,-9.65,0.56,9.92,-9.60,0.10,-2.24,9.85
-2.23,-9.65,0.57,9.92,-9.59,0.12,-2.27,9.86
-2.28,-9.62,0.57,9.90,-9.59,0.12,-2.25,9.85
-2.24,-9.63,0.56,9.90,-9.59,0.11,-2.25,9.85
-2.27,-9.65,0.55,9.93,-9.59,0.10,-2.25,9.86
-2.27,-9.65,0.58,9.93,-9.61,0.12,-2.25,9.87
-2.27,-9.67,0.60,9.95,-9.61,0.10,-2.22,9.86
-2.29,-9.65,0.57,9.94,-9.59,0.13,-2.22,9.84
-2.25,-9.65,0.55,9.92,-9.61,0.10,-2.24,9.87
-2.25,-9.64,0.55,9.92,-9.60,0.13,-2.24,9.86
-2.24,-9.68,0.59,9.95,-9.60,0.13,-2.28,9.87
-2.25,-9.66,0.56,9.94,-9.61,0.09,-2.22,9.87
-2.23,-9.63,0.57,9.90,-9.61,0.12,-2.23,9.86
-2.32,-9.69,0.62,9.98,-9.60,0.12,-2.31,9.88
-2.27,-9.70,0.77,9.99,-9.57,0.12,-2.26,9.84
-2.25,-9.55,0.56,9.83,-9.57,0.09,-2.17,9.82
-2.19,-9.57,0.43,9.82,-9.61,0.04,-2.36,9.90
-2.21,-9.69,0.58,9.96,-9.52,0.09,-2.10,9.75
-2.18,-9.68,0.47,9.93,-9.60,0.08,-2.24,9.86
-2.24,-9.69,0.59,9.96,-9.61,0.12,-2.40,9.91
-2.29,-9.64,0.64,9.93,-9.57,0.11,-2.27,9.84
-2.24,-9.58,0.59,9.85,-9.57,0.10,-2.21,9.82
-2.26,-9.56,0.54,9.84,-9.59,0.08,-2.23,9.85
-2.29,-9.60,0.51,9.89,-9.58,0.12,-2.24,9.84
-2.29,-9.60,0.55,9.89,-9.61,0.13,-2.28,9.88
-2.24,-9.67,0.56,9.94,-9.64,0.11,-2.26,9.91
-2.26,-9.68,0.61,9.96,-9.65,0.14,-2.26,9.91
-2.25,-9.70,0.60,9.98,-9.66,0.11,-2.22,9.91
-2.26,-9.68,0.60,9.96,-9.62,0.10,-2.24,9.88
-2.24,-9.63,0.55,9.91,-9.60,0.11,-2.22,9.85
-2.25,-9.64,0.58,9.92,-9.59,0.11,-2.19,9.84
-2.24,-9.68,0.57,9.95,-9.62,0.11,-2.19,9.86
-2.26,-9.63,0.56,9.91,-9.60,0.11,-2.19,9.84
-2.26,-9.63,0.57,9.91,-9.58,0.12,-2.18,9.83
-2.22,-9.62,0.59,9.89,-9.57,0.11,-2.17,9.81
-2.20,-9.63,0.59,9.90,-9.58,0.11,-2.18,9.83
-2.23,-9.63,0.56,9.90,-9.57,0.11,-2.22,9.83
-2.24,-9.64,0.56,9.91,-9.58,0.10,-2.24,9.84
-2.28,-9.65,0.56,9.93,-9.61,0.12,-2.24,9.87
-2.26,-9.64,0.54,9.91,-9.59,0.11,-2.24,9.85
-2.23,-9.66,0.55,9.92,-9.62,0.12,-2.21,9.87
-2.26,-9.66,0.55,9.93,-9.63,0.11,-2.22,9.89
-2.25,-9.65,0.56,9.92,-9.62,0.12,-2.23,9.87
-2.20,-9.67,0.58,9.94,-9.59,0.12,-2.19,9.84
-2.26,-9.68,0.57,9.96,-9.65,0.13,-2.23,9.91
-2.25,-9.71,0.68,9.99,-9.61,0.09,-2.31,9.89
-2.20,-9.66,0.60,9.93,-9.62,0.10,-2.15,9.86
-2.20,-9.61,0.56,9.87,-9.60,0.11,-2.18,9.85
-2.26,-9.67,0.56,9.95,-9.57,0.11,-2.20,9.82
