Ax,Ay,Az,Amag,Ax2,Ay2,Az2,Amag2
-1.99,-9.63,0.14,9.84,-9.64,-0.10,-2.27,9.90
-2.01,-9.65,0.11,9.86,-9.66,-0.11,-2.25,9.92
-2.01,-9.64,0.15,9.85,-9.64,-0.10,-2.25,9.89
-2.06,-9.66,0.19,9.88,-9.63,-0.09,-2.26,9.89
-2.09,-9.63,0.18,9.86,-9.62,-0.08,-2.24,9.88
-2.06,-9.61,0.16,9.83,-9.60,-0.06,-2.22,9.86
-2.04,-9.59,0.13,9.81,-9.60,-0.06,-2.22,9.85
-2.03,-9.58,0.11,9.79,-9.60,-0.09,-2.20,9.85
-2.04,-9.57,0.12,9.78,-9.60,-0.10,-2.18,9.85
-2.03,-9.60,0.13,9.81,-9.60,-0.08,-2.23,9.86
-2.05,-9.59,0.11,9.80,-9.61,-0.08,-2.22,9.87
-2.03,-9.56,0.13,9.77,-9.59,-0.10,-2.23,9.85
-2.05,-9.55,0.11,9.77,-9.58,-0.09,-2.24,9.84
-2.06,-9.52,-0.08,9.74,-9.60,-0.07,-2.23,9.85
-2.04,-9.59,0.04,9.81,-9.62,-0.10,-2.23,9.88
-2.03,-9.61,0.03,9.82,-9.59,-0.08,-2.22,9.84
-2.06,-9.64,0.11,9.86,-9.67,-0.08,-2.34,9.95
-2.06,-9.65,0.15,9.87,-9.60,-0.11,-2.25,9.87
-2.02,-9.60,0.14,9.81,-9.68,-0.08,-2.23,9.94
-2.02,-9.57,0.12,9.78,-9.61,-0.11,-2.20,9.86
-2.07,-9.59,0.16,9.81,-9.60,-0.11,-2.28,9.86
-2.07,-9.56,0.12,9.79,-9.60,-0.09,-2.27,9.86
-2.06,-9.55,0.07,9.77,-9.60,-0.10,-2.24,9.86
-2.01,-9.59,0.08,9.80,-9.60,-0.07,-2.20,9.84
-2.01,-9.60,0.06,9.81,-9.61,-0.09,-2.22,9.86
-2.01,-9.59,0.10,9.80,-9.62,-0.11,-2.28,9.89
-2.02,-9.61,0.11,9.82,-9.61,-0.09,-2.23,9.87
-2.02,-9.60,0.11,9.81,-9.61,-0.06,-2.22,9.86
-2.03,-9.58,0.10,9.79,-9.60,-0.08,-2.26,9.86
-2.05,-9.60,0.11,9.82,-9.60,-0.11,-2.26,9.86
-2.04,-9.57,0.12,9.78,-9.62,-0.09,-2.25,9.88
-2.04,-9.61,0.10,9.82,-9.58,-0.10,-2.25,9.85
-2.02,-9.62,0.12,9.83,-9.59,-0.09,-2.23,9.84
-2.00,-9.54,0.10,9.75,-9.58,-0.10,-2.26,9.85
-2.03,-9.59,0.07,9.80,-9.60,-0.10,-2.24,9.86
-2.02,-9.62,0.08,9.83,-9.62,-0.11,-2.21,9.87
-2.04,-9.62,0.12,9.83,-9.62,-0.09,-2.22,9.88
-2.03,-9.63,0.10,9.84,-9.64,-0.09,-2.22,9.89
-2.05,-9.65,0.08,9.86,-9.63,-0.08,-2.23,9.89
-2.04,-9.63,0.08,9.85,-9.61,-0.10,-2.25,9.88
-2.03,-9.62,0.10,9.83,-9.62,-0.06,-2.27,9.88
-2.08,-9.60,0.10,9.83,-9.60,-0.07,-2.28,9.86
-2.06,-9.57,0.10,9.79,-9.58,-0.07,-2.25,9.84
-2.05,-9.57,0.08,9.79,-9.60,-0.08,-2.24,9.86
-2.07,-9.65,0.27,9.87,-9.58,-0.09,-2.24,9.84
-2.03,-9.58,0.07,9.79,-9.59,-0.10,-2.24,9.85
-2.07,-9.59,0.06,9.81,-9.59,-0.10,-2.23,9.84
-2.04,-9.57,0.06,9.79,-9.57,-0.09,-2.23,9.83
-2.01,-9.58,0.03,9.79,-9.58,-0.10,-2.23,9.84
-2.05,-9.58,0.06,9.80,-9.62,-0.08,-2.23,9.88
-2.03,-9.59,0.05,9.81,-9.58,-0.08,-2.24,9.84
-2.01,-9.58,0.06,9.79,-9.60,-0.09,-2.24,9.85
-2.04,-9.58,0.09,9.80,-9.62,-0.07,-2.24,9.88
-2.06,-9.59,0.11,9.81,-9.60,-0.09,-2.27,9.87
-2.08,-9.55,0.06,9.78,-9.58,-0.05,-2.24,9.83
-2.07,-9.58,0.09,9.80,-9.57,-0.08,-2.23,9.83
-2.07,-9.58,0.10,9.80,-9.58,-0.06,-2.26,9.84
-2.05,-9.56,0.07,9.78,-9.61,-0.07,-2.23,9.86
-2.04,-9.60,0.04,9.81,-9.62,-0.07,-2.24,9.87
-2.05,-9.60,0.02,9.81,-9.61,-0.07,-2.23,9.87
-2.05,-9.60,0.03,9.82,-9.60,-0.06,-2.26,9.87
-2.04,-9.60,0.09,9.81,-9.60,-0.07,-2.23,9.86
-2.04,-9.60,0.06,9.81,-9.59,-0.10,-2.23,9.85
-2.08,-9.59,0.09,9.81,-9.59,-0.06,-2.24,9.85
-2.03,-9.60,0.07,9.81,-9.59,-0.08,-2.21,9.85
-2.06,-9.61,0.09,9.82,-9.60,-0.07,-2.25,9.86
-2.00,-9.56,0.07,9.77,-9.59,-0.09,-2.25,9.85
-2.01,-9.58,0.03,9.79,-9.59,-0.08,-2.27,9.86
-2.04,-9.61,0.05,9.83,-9.60,-0.07,-2.24,9.86
-2.12,-9.64,0.09,9.87,-9.63,-0.06,-2.32,9.91
-2.11,-9.62,0.24,9.85,-9.61,-0.07,-2.28,9.88
-2.04,-9.54,0.12,9.76,-9.55,-0.07,-2.24,9.81
-2.00,-9.47,-0.04,9.68,-9.61,-0.10,-2.33,9.89
-2.00,-9.71,-0.14,9.91,-9.56,-0.07,-2.14,9.79
-2.02,-9.63,-0.01,9.83,-9.59,-0.09,-2.18,9.83
-2.11,-9.62,0.09,9.85,-9.63,-0.08,-2.35,9.91
-2.13,-9.60,0.18,9.84,-9.54,-0.08,-2.28,9.81
-2.08,-9.52,0.14,9.74,-9.57,-0.05,-2.25,9.83
-2.06,-9.48,0.07,9.71,-9.57,-0.06,-2.19,9.81
-2.07,-9.58,-0.04,9.80,-9.58,-0.07,-2.22,9.84
-2.13,-9.63,-0.01,9.86,-9.63,-0.04,-2.23,9.88
-2.14,-9.51,-0.01,9.75,-9.67,-0.07,-2.28,9.93
-2.04,-9.66,0.00,9.87,-9.67,-0.07,-2.24,9.92
-2.04,-9.66,0.04,9.88,-9.65,-0.06,-2.21,9.90
-2.06,-9.66,0.05,9.88,-9.64,-0.08,-2.24,9.90
-2.06,-9.63,0.06,9.85,-9.60,-0.08,-2.24,9.86
-2.06,-9.61,0.09,9.82,-9.59,-0.03,-2.22,9.85
-2.07,-9.56,0.05,9.78,-9.58,-0.06,-2.24,9.84
-2.06,-9.55,0.04,9.77,-9.57,-0.08,-2.19,9.82
-2.02,-9.59,0.04,9.80,-9.59,-0.12,-2.19,9.84
-2.03,-9.58,0.01,9.79,-9.61,-0.10,-2.21,9.87
-2.02,-9.58,0.04,9.79,-9.59,-0.08,-2.20,9.84
-2.03,-9.57,0.07,9.78,-9.59,-0.11,-2.19,9.84
-2.04,-9.57,0.08,9.79,-9.59,-0.09,-2.24,9.85
-2.06,-9.57,0.06,9.79,-9.56,-0.08,-2.21,9.81
-2.09,-9.58,0.06,9.80,-9.59,-0.07,-2.24,9.85
-2.05,-9.59,0.06,9.81,-9.57,-0.05,-2.20,9.82
-2.01,-9.59,0.05,9.80,-9.61,-0.05,-2.18,9.86
-2.02,-9.58,0.02,9.79,-9.61,-0.08,-2.20,9.86
-2.06,-9.56,0.11,9.78,-9.64,-0.06,-2.27,9.90
-2.09,-9.67,0.08,9.89,-9.63,-0.08,-2.16,9.87
-2.04,-9.61,0.09,9.83,-9.68,-0.08,-2.23,9.93
-2.02,-9.60,0.08,9.81,-9.59,-0.09,-2.20,9.84
-2.07,-9.54,0.01,9.77,-9.57,-0.08,-2.23,9.83
-2.08,-9.56,0.03,9.79,-9.60,-0.07,-2.21,9.85
-2.06,-9.59,0.03,9.81,-9.60,-0.06,-2.26,9.86
-2.03,-9.58,0.05,9.79,-9.59,-0.07,-2.22,9.84
-2.02,-9.60,0.04,9.81,-9.60,-0.10,-2.18,9.84
-2.00,-9.62,0.05,9.82,-9.57,-0.07,-2.19,9.82
-2.01,-9.60,0.01,9.81,-9.62,-0.06,-2.23,9.88
-2.05,-9.62,0.02,9.83,-9.59,-0.04,-2.22,9.84
-2.04,-9.62,0.04,9.84,-9.62,-0.07,-2.22,9.87
-2.05,-9.60,0.05,9.81,-9.60,-0.08,-2.21,9.86
-2.04,-9.60,0.03,9.82,-9.61,-0.08,-2.24,9.87
-2.07,-9.59,0.03,9.81,-9.62,-0.08,-2.23,9.88
-2.04,-9.58,0.04,9.79,-9.61,-0.07,-2.21,9.86
-2.04,-9.57,0.03,9.79,-9.62,-0.06,-2.23,9.88
-2.05,-9.58,0.06,9.80,-9.60,-0.08,-2.23,9.86
-2.03,-9.56,0.02,9.78,-9.63,-0.07,-2.22,9.88
-2.08,-9.60,0.02,9.82,-9.62,-0.07,-2.22,9.87
-2.04,-9.58,0.02,9.79,-9.63,-0.08,-2.22,9.88
-2.06,-9.61,0.03,9.83,-9.60,-0.05,-2.23,9.86
-2.04,-9.61,0.01,9.82,-9.62,-0.05,-2.24,9.88
-2.08,-9.62,0.02,9.84,-9.60,-0.06,-2.22,9.86
-2.06,-9.62,0.04,9.84,-9.58,-0.05,-2.26,9.84
-2.04,-9.60,0.03,9.81,-9.61,-0.07,-2.24,9.87
-2.07,-9.58,0.04,9.80,-9.61,-0.08,-2.23,9.86
-2.06,-9.58,0.03,9.80,-9.59,-0.07,-2.22,9.84
-2.06,-9.55,0.04,9.77,-9.58,-0.06,-2.21,9.83
-2.04,-9.56,0.06,9.77,-9.59,-0.09,-2.25,9.85
-2.03,-9.56,0.05,9.77,-9.60,-0.04,-2.21,9.85
-2.04,-9.57,0.00,9.79,-9.60,-0.07,-2.22,9.85
-2.02,-9.61,0.05,9.82,-9.58,-0.07,-2.20,9.83
-2.05,-9.61,0.02,9.83,-9.58,-0.09,-2.22,9.83
-2.05,-9.59,0.04,9.81,-9.60,-0.05,-2.18,9.85
-2.06,-9.60,0.03,9.82,-9.61,-0.07,-2.23,9.87
-2.02,-9.59,0.02,9.80,-9.60,-0.05,-2.20,9.85
-2.03,-9.60,0.04,9.82,-9.61,-0.06,-2.19,9.86
-2.04,-9.60,0.03,9.81,-9.63,-0.06,-2.21,9.88
-2.04,-9.59,0.05,9.81,-9.60,-0.06,-2.23,9.86
-2.06,-9.63,0.02,9.84,-9.62,-0.06,-2.23,9.87
-2.06,-9.61,0.04,9.83,-9.60,-0.07,-2.24,9.85
-2.05,-9.60,-0.00,9.81,-9.64,-0.06,-2.21,9.89
-2.04,-9.58,0.03,9.80,-9.59,-0.07,-2.24,9.85
-2.03,-9.60,0.02,9.81,-9.60,-0.07,-2.21,9.85
-2.03,-9.59,0.00,9.80,-9.62,-0.06,-2.18,9.86
-2.06,-9.60,0.04,9.82,-9.61,-0.06,-2.24,9.86
-2.03,-9.62,0.06,9.83,-9.60,-0.06,-2.26,9.86
-2.05,-9.60,0.03,9.82,-9.61,-0.08,-2.22,9.87
-2.02,-9.58,-0.00,9.79,-9.60,-0.08,-2.23,9.85
-2.01,-9.58,0.00,9.79,-9.62,-0.04,-2.21,9.87
-2.04,-9.59,0.01,9.81,-9.62,-0.04,-2.24,9.88
-2.11,-9.62,0.09,9.85,-9.64,-0.04,-2.29,9.90
-2.06,-9.56,0.11,9.78,-9.58,-0.06,-2.13,9.81
-2.02,-9.53,0.00,9.74,-9.62,-0.07,-2.30,9.89
-1.97,-9.60,-0.07,9.80,-9.63,-0.10,-2.24,9.88
-2.01,-9.70,-0.03,9.91,-9.62,-0.09,-2.07,9.84
-2.00,-9.62,-0.03,9.83,-9.64,-0.08,-2.27,9.91
-2.09,-9.62,0.10,9.84,-9.56,-0.08,-2.26,9.82
-2.09,-9.56,0.13,9.79,-9.59,-0.06,-2.25,9.85
-2.05,-9.53,0.10,9.75,-9.56,-0.06,-2.23,9.81
-2.08,-9.51,0.01,9.74,-9.54,-0.04,-2.23,9.80
-2.09,-9.57,-0.03,9.79,-9.57,-0.07,-2.23,9.83
-2.09,-9.58,0.02,9.81,-9.62,-0.02,-2.23,9.87
-2.01,-9.62,0.01,9.83,-9.67,-0.06,-2.21,9.92
-2.03,-9.63,0.00,9.84,-9.68,-0.06,-2.20,9.92
-2.00,-9.65,0.01,9.85,-9.65,-0.07,-2.19,9.90
-2.05,-9.63,0.03,9.85,-9.63,-0.04,-2.18,9.87
-2.10,-9.62,0.04,9.85,-9.63,-0.06,-2.20,9.88
-2.09,-9.63,0.03,9.85,-9.59,-0.03,-2.19,9.84
-2.09,-9.62,0.02,9.84,-9.61,-0.04,-2.20,9.86
-2.08,-9.60,0.01,9.83,-9.59,-0.06,-2.20,9.84
-2.04,-9.60,-0.01,9.82,-9.60,-0.07,-2.17,9.84
-2.02,-9.58,0.01,9.79,-9.60,-0.06,-2.18,9.84
-2.00,-9.57,0.04,9.78,-9.58,-0.09,-2.23,9.84
-1.98,-9.56,0.04,9.76,-9.60,-0.09,-2.23,9.85
-2.03,-9.57,0.04,9.78,-9.61,-0.11,-2.21,9.86
-2.03,-9.60,0.03,9.81,-9.61,-0.08,-2.24,9.87
-2.07,-9.61,0.02,9.83,-9.62,-0.06,-2.24,9.88
-2.04,-9.60,-0.01,9.81,-9.61,-0.03,-2.20,9.86
-2.04,-9.63,0.03,9.84,-9.63,-0.00,-2.21,9.88
-2.09,-9.60,-0.01,9.82,-9.67,-0.03,-2.29,9.94
-2.07,-9.63,0.07,9.85,-9.62,-0.06,-2.21,9.87
-2.05,-9.52,0.15,9.74,-9.66,-0.02,-2.24,9.92
-2.05,-9.62,0.10,9.84,-9.59,-0.09,-2.25,9.85
-2.06,-9.60,0.06,9.82,-9.56,-0.04,-2.25,9.83
-2.06,-9.57,0.06,9.79,-9.59,-0.03,-2.22,9.84
-2.09,-9.61,0.04,9.83,-9.62,-0.02,-2.24,9.88
-2.08,-9.59,0.11,9.81,-9.63,-0.02,-2.21,9.88
-2.04,-9.58,0.07,9.79,-9.60,-0.06,-2.23,9.86
-2.03,-9.58,0.06,9.80,-9.63,-0.06,-2.22,9.89
-2.00,-9.61,0.05,9.81,-9.64,-0.07,-2.20,9.89
-2.02,-9.61,0.08,9.82,-9.62,-0.08,-2.23,9.87
-2.02,-9.61,0.12,9.82,-9.61,-0.05,-2.22,9.87
-2.02,-9.54,0.10,9.75,-9.58,-0.10,-2.28,9.85
-2.04,-9.58,0.15,9.80,-9.58,-0.09,-2.27,9.85
-2.04,-9.55,0.08,9.76,-9.56,-0.07,-2.27,9.83
-2.02,-9.60,0.16,9.82,-9.58,-0.09,-2.27,9.84
-2.02,-9.61,0.12,9.82,-9.61,-0.09,-2.27,9.88
-2.04,-9.60,0.13,9.81,-9.60,-0.09,-2.27,9.87
-2.04,-9.56,0.12,9.78,-9.58,-0.11,-2.28,9.85
-2.02,-9.61,0.11,9.82,-9.61,-0.06,-2.30,9.88
-2.06,-9.61,0.18,9.83,-9.62,-0.08,-2.27,9.89
-2.06,-9.63,0.11,9.85,-9.63,-0.06,-2.28,9.90
-2.09,-9.66,0.23,9.88,-9.62,-0.06,-2.29,9.89
-2.04,-9.61,0.13,9.82,-9.59,-0.07,-2.27,9.85
-2.08,-9.58,0.10,9.80,-9.60,-0.09,-2.25,9.86
-2.05,-9.59,0.23,9.81,-9.56,-0.07,-2.28,9.83
-2.04,-9.53,0.17,9.75,-9.59,-0.09,-2.29,9.86
-2.04,-9.58,0.18,9.80,-9.56,-0.10,-2.21,9.81
-2.05,-9.57,0.19,9.79,-9.56,-0.09,-2.24,9.82
-2.04,-9.56,0.16,9.78,-9.55,-0.07,-2.28,9.82
-2.02,-9.56,0.22,9.77,-9.56,-0.12,-2.26,9.83
-2.04,-9.57,0.17,9.79,-9.56,-0.11,-2.26,9.82
-2.02,-9.59,0.19,9.80,-9.59,-0.10,-2.27,9.85
-2.02,-9.59,0.17,9.80,-9.61,-0.09,-2.29,9.88
-2.00,-9.60,0.17,9.81,-9.63,-0.08,-2.30,9.90
-2.01,-9.58,0.16,9.79,-9.61,-0.08,-2.26,9.88
-2.04,-9.72,0.12,9.93,-9.61,-0.10,-2.29,9.88
-2.04,-9.61,0.16,9.83,-9.57,-0.10,-2.28,9.84
-2.02,-9.64,0.16,9.85,-9.59,-0.10,-2.28,9.86
-2.01,-9.58,-0.00,9.79,-9.62,-0.10,-2.29,9.89
-2.01,-9.61,0.18,9.82,-9.58,-0.12,-2.32,9.86
-2.03,-9.63,0.24,9.84,-9.60,-0.11,-2.31,9.87
-2.05,-9.59,0.23,9.81,-9.56,-0.09,-2.26,9.83
-2.03,-9.64,0.31,9.86,-9.56,-0.11,-2.27,9.82
-2.07,-9.60,0.44,9.83,-9.59,-0.07,-2.24,9.84
-2.04,-9.57,0.34,9.79,-9.59,-0.09,-2.28,9.86
-2.01,-9.59,0.24,9.80,-9.59,-0.11,-2.30,9.87
-2.01,-9.61,0.27,9.82,-9.57,-0.12,-2.29,9.84
-2.01,-9.74,0.22,9.95,-9.62,-0.10,-2.32,9.90
-2.02,-9.56,0.08,9.77,-9.59,-0.06,-2.32,9.87
-2.02,-9.60,0.33,9.81,-9.62,-0.10,-2.42,9.92
-2.00,-9.57,0.34,9.79,-9.57,-0.12,-2.26,9.83
-2.02,-9.54,0.16,9.75,-9.60,-0.07,-2.36,9.88
-2.01,-9.62,0.20,9.83,-9.59,-0.11,-2.32,9.86
-1.98,-9.62,0.19,9.83,-9.60,-0.09,-2.22,9.86
-1.98,-9.59,0.23,9.79,-9.57,-0.15,-2.41,9.87
-2.06,-9.59,0.29,9.81,-9.52,-0.15,-2.33,9.81
-2.10,-9.59,0.30,9.82,-9.57,-0.09,-2.30,9.84
-2.11,-9.55,0.24,9.79,-9.56,-0.04,-2.26,9.83
-2.07,-9.58,0.18,9.80,-9.60,-0.04,-2.29,9.87
-2.12,-9.61,0.14,9.84,-9.65,-0.03,-2.26,9.91
-2.01,-9.67,0.19,9.87,-9.67,-0.06,-2.29,9.94
-2.00,-9.65,0.18,9.85,-9.68,-0.07,-2.27,9.95
-1.97,-9.71,0.17,9.90,-9.66,-0.08,-2.31,9.93
-2.00,-9.74,0.33,9.95,-9.66,-0.11,-2.27,9.93
-1.96,-9.67,0.18,9.86,-9.64,-0.11,-2.29,9.91
-2.01,-9.59,0.37,9.80,-9.57,-0.08,-2.25,9.83
-2.06,-9.59,0.30,9.82,-9.59,-0.09,-2.28,9.86
-2.05,-9.58,0.24,9.80,-9.58,-0.09,-2.28,9.85
-2.03,-9.58,0.14,9.79,-9.60,-0.09,-2.29,9.87
-2.02,-9.58,0.20,9.79,-9.55,-0.11,-2.29,9.82
-1.99,-9.54,0.21,9.75,-9.56,-0.08,-2.29,9.83
-2.02,-9.58,0.28,9.79,-9.57,-0.09,-2.29,9.84
-2.04,-9.58,0.28,9.80,-9.56,-0.11,-2.32,9.84
-2.06,-9.55,0.24,9.77,-9.52,-0.12,-2.29,9.80
-2.03,-9.56,0.27,9.78,-9.54,-0.10,-2.35,9.83
-2.04,-9.63,0.23,9.84,-9.56,-0.13,-2.38,9.86
-1.98,-9.62,0.21,9.82,-9.53,-0.12,-2.16,9.78
-2.05,-9.69,0.30,9.91,-9.66,-0.09,-2.44,9.96
-2.03,-9.67,0.28,9.89,-9.59,-0.16,-2.30,9.86
-2.01,-9.60,0.35,9.82,-9.64,-0.11,-2.34,9.92
-2.04,-9.58,0.29,9.80,-9.58,-0.13,-2.27,9.84
-2.06,-9.60,0.31,9.82,-9.56,-0.11,-2.37,9.85
-2.09,-9.59,0.30,9.82,-9.57,-0.11,-2.37,9.86
-2.05,-9.53,0.26,9.75,-9.57,-0.08,-2.35,9.85
-2.07,-9.54,0.14,9.77,-9.58,-0.14,-2.33,9.86
-2.02,-9.58,0.20,9.79,-9.55,-0.11,-2.34,9.83
-2.01,-9.57,0.22,9.78,-9.58,-0.12,-2.32,9.85
-2.01,-9.57,0.18,9.78,-9.56,-0.11,-2.37,9.85
-2.02,-9.58,0.20,9.79,-9.55,-0.13,-2.36,9.84
-2.03,-9.60,0.23,9.82,-9.58,-0.13,-2.34,9.86
-2.00,-9.58,0.22,9.79,-9.55,-0.14,-2.32,9.83
-2.01,-9.58,0.24,9.79,-9.57,-0.13,-2.33,9.86
-2.00,-9.58,0.23,9.79,-9.58,-0.13,-2.34,9.86
-1.97,-9.57,0.20,9.78,-9.59,-0.13,-2.35,9.87
-2.00,-9.59,0.23,9.80,-9.57,-0.15,-2.34,9.86
-2.00,-9.60,0.25,9.81,-9.59,-0.15,-2.34,9.87
-1.99,-9.63,0.24,9.84,-9.60,-0.16,-2.38,9.89
-2.00,-9.63,0.27,9.84,-9.61,-0.14,-2.36,9.89
-1.99,-9.63,0.22,9.84,-9.54,-0.14,-2.35,9.83
-1.95,-9.61,0.23,9.81,-9.54,-0.14,-2.36,9.83
-1.98,-9.61,0.22,9.82,-9.59,-0.10,-2.36,9.88
-1.99,-9.59,0.23,9.80,-9.60,-0.16,-2.40,9.90
-2.02,-9.58,0.27,9.80,-9.55,-0.17,-2.35,9.84
-2.01,-9.57,0.30,9.79,-9.57,-0.14,-2.36,9.86
-1.98,-9.57,0.29,9.78,-9.56,-0.15,-2.33,9.84
-2.00,-9.59,0.24,9.80,-9.54,-0.14,-2.33,9.83
-2.01,-9.59,0.28,9.80,-9.56,-0.14,-2.33,9.84
-2.03,-9.57,0.26,9.79,-9.55,-0.14,-2.34,9.83
-2.05,-9.59,0.27,9.81,-9.54,-0.15,-2.34,9.83
-2.09,-9.57,0.32,9.81,-9.56,-0.13,-2.33,9.84
-2.06,-9.58,0.28,9.80,-9.56,-0.12,-2.36,9.85
-2.02,-9.55,0.24,9.76,-9.57,-0.15,-2.31,9.85
-2.04,-9.58,0.22,9.80,-9.56,-0.13,-2.33,9.84
-2.03,-9.58,0.25,9.80,-9.59,-0.11,-2.36,9.87
-2.05,-9.58,0.21,9.80,-9.57,-0.12,-2.32,9.85
-2.02,-9.63,0.22,9.84,-9.59,-0.12,-2.35,9.88
-2.02,-9.63,0.24,9.84,-9.59,-0.15,-2.36,9.88
-2.02,-9.64,0.20,9.85,-9.57,-0.14,-2.32,9.85
-2.03,-9.62,0.23,9.83,-9.60,-0.14,-2.37,9.89
-1.97,-9.60,0.21,9.81,-9.61,-0.14,-2.32,9.89
-2.01,-9.62,0.22,9.83,-9.58,-0.14,-2.36,9.87
-2.04,-9.61,0.24,9.83,-9.60,-0.14,-2.37,9.89
-2.09,-9.60,0.33,9.83,-9.59,-0.14,-2.41,9.89
-2.07,-9.60,0.33,9.82,-9.53,-0.17,-2.26,9.79
-2.00,-9.53,0.16,9.74,-9.56,-0.14,-2.38,9.85
-1.98,-9.58,0.13,9.78,-9.57,-0.14,-2.34,9.86
-1.98,-9.64,0.23,9.84,-9.61,-0.16,-2.32,9.89
-1.99,-9.60,0.20,9.81,-9.58,-0.15,-2.36,9.86
-2.06,-9.62,0.27,9.84,-9.52,-0.17,-2.36,9.80
-2.10,-9.57,0.31,9.80,-9.54,-0.11,-2.30,9.82
-2.12,-9.52,0.28,9.75,-9.56,-0.11,-2.32,9.84
-2.08,-9.55,0.15,9.77,-9.55,-0.08,-2.29,9.82
-2.03,-9.63,0.19,9.84,-9.57,-0.12,-2.30,9.85
-2.04,-9.66,0.27,9.88,-9.64,-0.11,-2.30,9.91
-1.96,-9.69,0.20,9.89,-9.65,-0.16,-2.30,9.92
-1.96,-9.63,0.20,9.83,-9.65,-0.16,-2.33,9.93
-1.95,-9.66,0.21,9.86,-9.62,-0.16,-2.31,9.89
-2.04,-9.63,0.21,9.85,-9.60,-0.12,-2.31,9.88
-2.04,-9.62,0.22,9.83,-9.59,-0.12,-2.31,9.87
-2.06,-9.59,0.23,9.81,-9.56,-0.10,-2.28,9.83
-2.04,-9.55,0.21,9.77,-9.55,-0.11,-2.29,9.82
-2.03,-9.56,0.18,9.78,-9.55,-0.11,-2.29,9.83
-2.00,-9.58,0.21,9.78,-9.54,-0.15,-2.28,9.81
-1.97,-9.58,0.17,9.78,-9.56,-0.15,-2.32,9.84
-1.99,-9.58,0.19,9.79,-9.57,-0.14,-2.29,9.84
-2.01,-9.57,0.22,9.78,-9.59,-0.15,-2.31,9.87
-2.04,-9.60,0.30,9.81,-9.54,-0.15,-2.33,9.82
-2.03,-9.60,0.22,9.82,-9.57,-0.11,-2.34,9.85
-2.04,-9.62,0.15,9.83,-9.62,-0.12,-2.33,9.89
-1.95,-9.63,0.14,9.82,-9.59,-0.12,-2.26,9.85
-2.02,-9.64,0.04,9.85,-9.64,-0.08,-2.43,9.95
-2.04,-9.70,0.30,9.92,-9.60,-0.14,-2.29,9.87
-2.03,-9.64,0.30,9.86,-9.64,-0.11,-2.33,9.92
-2.04,-9.59,0.19,9.81,-9.59,-0.17,-2.27,9.85
-2.04,-9.61,0.22,9.83,-9.59,-0.13,-2.32,9.87
-2.08,-9.61,0.24,9.84,-9.58,-0.12,-2.33,9.86
-2.07,-9.57,0.16,9.80,-9.60,-0.13,-2.32,9.87
-2.03,-9.61,0.15,9.82,-9.59,-0.11,-2.27,9.85
-2.02,-9.61,0.14,9.82,-9.59,-0.14,-2.29,9.86
-2.00,-9.62,0.25,9.83,-9.56,-0.14,-2.33,9.84
-2.00,-9.59,0.17,9.80,-9.57,-0.14,-2.33,9.85
-1.98,-9.59,0.18,9.80,-9.55,-0.17,-2.29,9.83
-2.01,-9.60,0.20,9.81,-9.57,-0.13,-2.33,9.85
-2.03,-9.60,0.18,9.81,-9.56,-0.14,-2.33,9.84
-2.01,-9.57,0.20,9.78,-9.52,-0.13,-2.34,9.81
-2.01,-9.61,0.19,9.82,-9.57,-0.13,-2.32,9.85
-1.99,-9.59,0.18,9.80,-9.59,-0.13,-2.32,9.87
-1.98,-9.60,0.18,9.80,-9.57,-0.14,-2.31,9.85
-2.01,-9.60,0.17,9.81,-9.59,-0.14,-2.30,9.86
-2.00,-9.60,0.16,9.81,-9.59,-0.11,-2.31,9.86
-2.05,-9.63,0.17,9.85,-9.61,-0.11,-2.31,9.88
-2.06,-9.60,0.17,9.81,-9.59,-0.12,-2.31,9.87
-1.98,-9.59,0.09,9.80,-9.62,-0.12,-2.33,9.90
-2.03,-9.59,0.07,9.80,-9.63,-0.13,-2.30,9.90
-2.01,-9.60,0.12,9.81,-9.61,-0.09,-2.32,9.89
-2.04,-9.58,0.17,9.80,-9.59,-0.14,-2.29,9.86
-2.02,-9.59,0.17,9.80,-9.59,-0.12,-2.32,9.86
-2.04,-9.58,0.14,9.80,-9.58,-0.10,-2.29,9.85
-2.04,-9.58,0.14,9.79,-9.58,-0.14,-2.33,9.86
-2.02,-9.58,0.17,9.79,-9.59,-0.12,-2.28,9.85
-2.05,-9.58,0.16,9.80,-9.56,-0.11,-2.29,9.83
-2.03,-9.59,0.15,9.81,-9.56,-0.16,-2.29,9.83
-2.03,-9.60,0.16,9.82,-9.60,-0.13,-2.32,9.87
-2.00,-9.58,0.17,9.79,-9.59,-0.16,-2.29,9.86
-1.93,-9.54,0.09,9.73,-9.57,-0.13,-2.32,9.85
-1.97,-9.42,-0.10,9.62,-9.57,-0.14,-2.32,9.85
-2.04,-9.68,0.27,9.90,-9.55,-0.13,-2.32,9.83
-2.04,-9.59,0.20,9.80,-9.56,-0.13,-2.25,9.82
-2.04,-9.58,0.23,9.80,-9.58,-0.13,-2.27,9.84
-2.01,-9.57,0.12,9.79,-9.58,-0.12,-2.32,9.86
-2.04,-9.60,0.13,9.82,-9.60,-0.13,-2.30,9.88
-2.02,-9.62,0.13,9.83,-9.60,-0.12,-2.26,9.86
-1.98,-9.61,0.15,9.82,-9.63,-0.09,-2.26,9.89
-2.02,-9.58,0.14,9.79,-9.62,-0.11,-2.31,9.89
-2.09,-9.66,0.27,9.89,-9.64,-0.12,-2.40,9.93
-2.05,-9.62,0.27,9.84,-9.57,-0.13,-2.20,9.82
-1.97,-9.51,0.08,9.71,-9.54,-0.13,-2.29,9.81
-1.91,-9.56,0.11,9.75,-9.59,-0.15,-2.35,9.88
-1.98,-9.67,0.12,9.87,-9.55,-0.16,-2.20,9.80
-1.99,-9.63,0.18,9.84,-9.62,-0.15,-2.38,9.91
-2.05,-9.66,0.26,9.88,-9.57,-0.16,-2.38,9.86
-2.07,-9.57,0.29,9.79,-9.54,-0.13,-2.34,9.82
-2.09,-9.55,0.27,9.78,-9.55,-0.09,-2.25,9.82
-2.03,-9.53,-0.02,9.74,-9.56,-0.11,-2.31,9.84
-2.10,-9.60,0.07,9.83,-9.57,-0.09,-2.31,9.85
-2.07,-9.72,0.19,9.94,-9.60,-0.06,-2.30,9.87
-2.03,-9.56,0.08,9.77,-9.60,-0.09,-2.27,9.86
-1.99,-9.64,0.13,9.85,-9.68,-0.11,-2.26,9.94
-2.01,-9.66,0.17,9.87,-9.64,-0.12,-2.26,9.90
-2.01,-9.62,0.12,9.83,-9.65,-0.11,-2.24,9.91
-2.05,-9.65,0.18,9.87,-9.62,-0.07,-2.25,9.88
-2.09,-9.62,0.16,9.84,-9.59,-0.08,-2.26,9.85
-2.08,-9.60,0.16,9.82,-9.60,-0.10,-2.23,9.85
-2.07,-9.57,0.09,9.79,-9.58,-0.12,-2.24,9.84
-2.04,-9.58,0.13,9.79,-9.58,-0.10,-2.25,9.84
-2.02,-9.59,0.14,9.80,-9.59,-0.10,-2.25,9.85
-2.01,-9.57,0.12,9.78,-9.58,-0.12,-2.24,9.84
-1.99,-9.58,0.19,9.79,-9.58,-0.11,-2.26,9.84
-2.03,-9.54,0.13,9.76,-9.59,-0.11,-2.26,9.85
-2.05,-9.59,0.14,9.81,-9.57,-0.11,-2.26,9.84
-2.07,-9.60,0.20,9.82,-9.60,-0.10,-2.26,9.86
-2.05,-9.59,0.10,9.81,-9.59,-0.10,-2.28,9.86
-1.98,-9.56,0.07,9.76,-9.59,-0.10,-2.25,9.85
-2.10,-9.68,0.31,9.91,-9.61,-0.10,-2.17,9.86
-2.09,-9.65,0.15,9.88,-9.66,-0.10,-2.30,9.93
-2.06,-9.62,0.14,9.84,-9.65,-0.08,-2.19,9.90
-2.05,-9.64,0.18,9.86,-9.64,-0.11,-2.27,9.91
-2.01,-9.58,0.10,9.79,-9.57,-0.15,-2.22,9.83
-2.04,-9.57,0.08,9.78,-9.59,-0.13,-2.26,9.85
-2.06,-9.57,0.06,9.79,-9.61,-0.07,-2.26,9.87
-2.05,-9.64,0.08,9.86,-9.60,-0.10,-2.26,9.86
-1.99,-9.59,0.09,9.79,-9.62,-0.12,-2.24,9.88
-2.00,-9.61,0.08,9.81,-9.61,-0.10,-2.24,9.87
-2.03,-9.60,0.08,9.82,-9.62,-0.11,-2.21,9.87
-2.04,-9.59,0.07,9.81,-9.59,-0.12,-2.25,9.86
-2.01,-9.61,0.06,9.81,-9.59,-0.08,-2.25,9.85
-2.01,-9.63,0.06,9.84,-9.63,-0.11,-2.34,9.91
-2.04,-9.62,0.14,9.83,-9.60,-0.10,-2.21,9.85
-2.05,-9.61,0.14,9.83,-9.59,-0.10,-2.24,9.85
-2.02,-9.66,0.19,9.87,-9.60,-0.10,-2.26,9.86
-2.02,-9.59,0.10,9.80,-9.58,-0.11,-2.26,9.85
-2.04,-9.59,0.10,9.81,-9.60,-0.11,-2.24,9.86
-2.02,-9.58,0.08,9.79,-9.62,-0.11,-2.23,9.88
-2.05,-9.63,0.13,9.85,-9.64,-0.12,-2.24,9.90
-2.05,-9.62,0.09,9.83,-9.64,-0.09,-2.22,9.90
-2.04,-9.60,0.07,9.82,-9.62,-0.10,-2.27,9.89
-2.03,-9.61,0.10,9.82,-9.58,-0.09,-2.24,9.84
-2.05,-9.60,0.09,9.81,-9.59,-0.08,-2.24,9.85
-2.03,-9.60,0.11,9.81,-9.60,-0.09,-2.28,9.87
-2.01,-9.54,0.09,9.75,-9.61,-0.09,-2.27,9.87
-2.01,-9.61,0.11,9.82,-9.59,-0.11,-2.24,9.85
-2.03,-9.56,0.08,9.78,-9.58,-0.11,-2.24,9.84
-2.03,-9.60,0.09,9.81,-9.59,-0.11,-2.24,9.85
-2.02,-9.58,0.08,9.79,-9.59,-0.09,-2.24,9.85
-2.05,-9.60,0.10,9.82,-9.62,-0.07,-2.21,9.87
-2.04,-9.61,0.14,9.83,-9.59,-0.09,-2.21,9.84
-2.03,-9.58,0.09,9.79,-9.59,-0.10,-2.21,9.84
-2.05,-9.62,0.07,9.83,-9.59,-0.11,-2.24,9.85
-2.05,-9.61,0.05,9.82,-9.61,-0.08,-2.25,9.87
-2.03,-9.60,0.07,9.82,-9.60,-0.10,-2.24,9.86
-2.07,-9.60,0.06,9.82,-9.59,-0.11,-2.25,9.85
-2.01,-9.60,0.06,9.81,-9.59,-0.13,-2.26,9.85
-2.05,-9.60,0.04,9.81,-9.61,-0.11,-2.26,9.87
-2.03,-9.58,0.08,9.79,-9.59,-0.12,-2.25,9.85
-2.01,-9.61,0.07,9.82,-9.61,-0.11,-2.24,9.87
-2.01,-9.62,0.09,9.83,-9.57,-0.11,-2.24,9.82
-1.99,-9.49,0.01,9.69,-9.57,-0.10,-2.25,9.83
-2.06,-9.62,0.08,9.83,-9.60,-0.14,-2.25,9.86
-2.05,-9.62,0.06,9.84,-9.60,-0.10,-2.26,9.87
-1.97,-9.60,0.04,9.80,-9.62,-0.10,-2.22,9.88
-2.00,-9.64,0.06,9.84,-9.64,-0.09,-2.23,9.89
-2.05,-9.44,-0.02,9.66,-9.62,-0.08,-2.28,9.88
-2.09,-9.64,0.32,9.87,-9.62,-0.10,-2.29,9.89
-2.07,-9.57,0.14,9.79,-9.58,-0.10,-2.20,9.83
-1.98,-9.49,-0.04,9.69,-9.60,-0.11,-2.32,9.88
-1.99,-9.67,0.06,9.88,-9.57,-0.12,-2.16,9.81
-1.95,-9.59,-0.02,9.79,-9.59,-0.11,-2.12,9.82
-2.04,-9.59,0.12,9.81,-9.60,-0.08,-2.36,9.89
-2.09,-9.64,0.13,9.86,-9.60,-0.10,-2.28,9.87
-2.04,-9.54,0.14,9.75,-9.59,-0.09,-2.21,9.84
-2.06,-9.51,0.08,9.73,-9.59,-0.09,-2.18,9.83
-2.05,-9.54,-0.01,9.76,-9.58,-0.09,-2.26,9.84
-2.07,-9.67,0.01,9.89,-9.60,-0.08,-2.23,9.86
-2.05,-9.59,0.05,9.81,-9.63,-0.07,-2.26,9.90
-2.04,-9.66,0.10,9.87,-9.64,-0.08,-2.22,9.89
-2.00,-9.60,0.00,9.81,-9.65,-0.11,-2.23,9.90
-2.01,-9.65,0.09,9.86,-9.64,-0.09,-2.23,9.89
-2.05,-9.64,0.09,9.85,-9.61,-0.09,-2.21,9.86
-2.05,-9.60,0.09,9.82,-9.56,-0.06,-2.21,9.82
-2.07,-9.58,0.08,9.80,-9.59,-0.06,-2.19,9.84
-2.04,-9.57,0.02,9.78,-9.61,-0.07,-2.20,9.86
-2.04,-9.58,-0.00,9.79,-9.57,-0.11,-2.15,9.81
-2.01,-9.58,0.03,9.79,-9.59,-0.08,-2.19,9.84
-2.01,-9.58,0.07,9.79,-9.59,-0.11,-2.21,9.85
-2.00,-9.59,0.06,9.80,-9.61,-0.11,-2.24,9.87
-2.03,-9.58,0.07,9.80,-9.58,-0.09,-2.22,9.84
-2.02,-9.61,0.05,9.82,-9.60,-0.11,-2.22,9.85
-2.02,-9.60,0.02,9.81,-9.61,-0.13,-2.22,9.87
-2.03,-9.63,0.02,9.84,-9.61,-0.10,-2.23,9.87
-2.04,-9.45,0.02,9.67,-9.61,-0.07,-2.18,9.85
-2.00,-9.61,0.04,9.82,-9.64,-0.09,-2.20,9.89
-2.07,-9.60,-0.01,9.82,-9.64,-0.07,-2.19,9.88
-2.07,-9.64,0.10,9.87,-9.66,-0.07,-2.32,9.93
-2.02,-9.60,0.11,9.82,-9.62,-0.06,-2.22,9.88
-2.00,-9.60,0.01,9.80,-9.59,-0.11,-2.17,9.83
-2.05,-9.59,0.02,9.81,-9.59,-0.09,-2.22,9.84
-2.09,-9.59,0.04,9.81,-9.57,-0.05,-2.24,9.83
-2.08,-9.54,0.06,9.76,-9.59,-0.07,-2.23,9.85
-1.99,-9.57,0.04,9.77,-9.55,-0.09,-2.19,9.80
-2.01,-9.58,0.03,9.79,-9.58,-0.10,-2.18,9.83
-2.02,-9.59,0.03,9.80,-9.62,-0.07,-2.21,9.87
-2.02,-9.61,0.04,9.82,-9.63,-0.07,-2.21,9.88
-2.01,-9.59,0.03,9.80,-9.62,-0.06,-2.17,9.87
-2.04,-9.61,0.04,9.83,-9.63,-0.06,-2.21,9.88
-2.05,-9.60,0.03,9.82,-9.60,-0.07,-2.21,9.85
-2.06,-9.60,0.03,9.82,-9.59,-0.09,-2.20,9.84
-2.03,-9.59,0.04,9.80,-9.60,-0.08,-2.20,9.85
-2.03,-9.56,0.03,9.77,-9.62,-0.08,-2.21,9.87
-2.04,-9.59,0.06,9.81,-9.61,-0.06,-2.19,9.86
-2.05,-9.60,0.08,9.81,-9.60,-0.09,-2.22,9.85
-2.05,-9.59,0.06,9.80,-9.62,-0.09,-2.19,9.86
-2.04,-9.61,0.03,9.82,-9.63,-0.09,-2.22,9.89
-2.02,-9.63,0.06,9.84,-9.63,-0.11,-2.21,9.88
-2.04,-9.60,0.06,9.82,-9.60,-0.10,-2.22,9.86
-2.03,-9.60,0.05,9.82,-9.60,-0.08,-2.19,9.85
-1.99,-9.61,0.04,9.81,-9.60,-0.07,-2.18,9.85
-2.03,-9.60,0.02,9.81,-9.62,-0.07,-2.23,9.87
-2.06,-9.57,0.04,9.79,-9.61,-0.09,-2.20,9.86
-2.03,-9.57,0.04,9.79,-9.63,-0.07,-2.22,9.88
-2.05,-9.56,0.05,9.78,-9.62,-0.06,-2.20,9.87
-2.04,-9.59,0.05,9.80,-9.61,-0.09,-2.21,9.86
-2.04,-9.59,0.03,9.81,-9.64,-0.07,-2.21,9.89
-2.05,-9.60,0.05,9.82,-9.59,-0.07,-2.20,9.83
-2.06,-9.60,0.06,9.82,-9.59,-0.09,-2.23,9.84
-2.02,-9.60,0.03,9.81,-9.59,-0.08,-2.20,9.84
-2.03,-9.60,0.05,9.81,-9.61,-0.08,-2.22,9.87
-2.05,-9.59,0.05,9.80,-9.59,-0.08,-2.20,9.84
-2.05,-9.60,0.02,9.82,-9.57,-0.08,-2.22,9.82
-2.02,-9.57,0.02,9.78,-9.59,-0.08,-2.20,9.83
-2.02,-9.57,0.01,9.78,-9.63,-0.08,-2.20,9.88
-2.02,-9.59,0.04,9.80,-9.64,-0.10,-2.22,9.89
-2.01,-9.61,0.00,9.82,-9.65,-0.09,-2.22,9.90
-2.03,-9.60,0.03,9.82,-9.62,-0.08,-2.24,9.87
-2.01,-9.63,0.00,9.84,-9.61,-0.08,-2.22,9.87
-2.03,-9.61,0.03,9.82,-9.62,-0.09,-2.25,9.88
-2.03,-9.61,0.02,9.82,-9.62,-0.09,-2.20,9.87
-2.06,-9.59,0.05,9.81,-9.62,-0.09,-2.20,9.87
-2.02,-9.58,0.08,9.79,-9.62,-0.08,-2.25,9.88
-2.01,-9.60,0.04,9.81,-9.59,-0.09,-2.22,9.85
-2.03,-9.59,0.04,9.80,-9.59,-0.08,-2.21,9.84
-2.03,-9.59,0.04,9.81,-9.60,-0.06,-2.21,9.85
-1.99,-9.58,0.01,9.78,-9.59,-0.09,-2.17,9.83
-2.01,-9.63,-0.00,9.84,-9.62,-0.07,-2.20,9.87
-2.12,-9.68,0.09,9.91,-9.59,-0.07,-2.32,9.87
-2.07,-9.64,0.21,9.86,-9.59,-0.06,-2.15,9.83
-2.00,-9.50,-0.00,9.71,-9.57,-0.09,-2.20,9.82
-1.99,-9.58,-0.07,9.78,-9.62,-0.08,-2.26,9.88
-2.00,-9.70,0.01,9.90,-9.60,-0.11,-2.09,9.82
-1.98,-9.62,0.03,9.82,-9.65,-0.09,-2.23,9.90
-2.04,-9.64,0.07,9.85,-9.60,-0.11,-2.30,9.87
-2.07,-9.58,0.19,9.81,-9.59,-0.09,-2.23,9.85
-2.07,-9.56,0.43,9.79,-9.63,-0.08,-2.19,9.88
-2.02,-9.52,0.02,9.73,-9.60,-0.08,-2.18,9.84
-2.06,-9.57,-0.04,9.79,-9.57,-0.09,-2.25,9.83
-2.08,-9.63,0.01,9.86,-9.64,-0.05,-2.25,9.89
-2.02,-9.61,0.03,9.82,-9.66,-0.08,-2.20,9.91
-1.99,-9.62,0.03,9.82,-9.68,-0.09,-2.23,9.94
-2.02,-9.64,0.03,9.85,-9.64,-0.08,-2.22,9.89
-1.99,-9.64,0.02,9.84,-9.66,-0.08,-2.18,9.90
-2.04,-9.61,0.06,9.82,-9.58,-0.07,-2.22,9.84
-2.07,-9.59,0.06,9.81,-9.60,-0.06,-2.18,9.84
-2.04,-9.57,0.04,9.78,-9.59,-0.07,-2.17,9.83
-2.02,-9.57,0.02,9.79,-9.59,-0.08,-2.18,9.84
-2.02,-9.59,0.02,9.80,-9.59,-0.10,-2.16,9.83
-2.04,-9.57,0.05,9.78,-9.57,-0.10,-2.17,9.82
-1.99,-9.57,0.03,9.78,-9.57,-0.08,-2.22,9.83
-2.00,-9.57,0.06,9.77,-9.60,-0.09,-2.21,9.85
-1.99,-9.58,0.01,9.79,-9.58,-0.09,-2.21,9.83
-2.03,-9.59,0.05,9.80,-9.59,-0.07,-2.23,9.85
-2.03,-9.53,0.12,9.74,-9.60,-0.08,-2.20,9.85
-2.07,-9.60,0.03,9.82,-9.61,-0.09,-2.22,9.86
-1.99,-9.69,0.04,9.90,-9.64,-0.07,-2.20,9.89
-2.04,-9.63,0.02,9.84,-9.62,-0.08,-2.14,9.86
-2.08,-9.62,-0.00,9.84,-9.67,-0.06,-2.26,9.93
-2.05,-9.67,0.09,9.89,-9.66,-0.08,-2.15,9.90
-2.01,-9.60,0.10,9.81,-9.68,-0.07,-2.20,9.92
-2.03,-9.59,0.03,9.80,-9.63,-0.11,-2.19,9.87
-2.07,-9.58,0.01,9.80,-9.56,-0.08,-2.20,9.81
-2.08,-9.58,0.04,9.81,-9.61,-0.05,-2.17,9.85
-2.04,-9.60,0.03,9.81,-9.64,-0.06,-2.24,9.89
-1.99,-9.58,0.02,9.79,-9.56,-0.06,-2.18,9.80
-1.99,-9.59,0.02,9.80,-9.62,-0.08,-2.17,9.87
-2.01,-9.64,0.03,9.85,-9.63,-0.09,-2.19,9.87
-2.00,-9.64,0.02,9.85,-9.61,-0.06,-2.23,9.87
-2.03,-9.60,0.00,9.81,-9.62,-0.06,-2.18,9.86
-2.07,-9.58,-0.01,9.80,-9.62,-0.05,-2.16,9.86
-2.04,-9.58,0.02,9.80,-9.62,-0.11,-2.22,9.87
-2.05,-9.60,0.01,9.81,-9.59,-0.07,-2.21,9.85
-2.04,-9.57,0.04,9.78,-9.61,-0.07,-2.21,9.86
-2.01,-9.58,0.05,9.79,-9.59,-0.05,-2.23,9.85
-2.03,-9.59,0.03,9.80,-9.62,-0.06,-2.21,9.87
-2.04,-9.59,0.01,9.80,-9.62,-0.07,-2.21,9.87
-2.04,-9.57,0.02,9.79,-9.63,-0.07,-2.21,9.88
-2.06,-9.61,0.02,9.83,-9.63,-0.05,-2.22,9.88
-2.05,-9.61,0.00,9.82,-9.62,-0.09,-2.16,9.86
-2.02,-9.60,-0.00,9.81,-9.61,-0.06,-2.21,9.86
-2.03,-9.62,0.02,9.83,-9.60,-0.06,-2.18,9.84
-2.07,-9.60,0.03,9.82,-9.60,-0.07,-2.20,9.85
-2.05,-9.60,0.06,9.81,-9.59,-0.08,-2.24,9.85
-2.03,-9.59,0.03,9.80,-9.61,-0.05,-2.19,9.85
-2.04,-9.59,0.07,9.81,-9.60,-0.06,-2.23,9.86
-2.02,-9.61,0.04,9.82,-9.60,-0.10,-2.19,9.85
-2.04,-9.60,0.05,9.82,-9.60,-0.08,-2.18,9.85
-2.04,-9.59,0.05,9.81,-9.58,-0.11,-2.18,9.82
-2.06,-9.62,0.06,9.83,-9.60,-0.05,-2.20,9.85
-2.04,-9.57,0.04,9.78,-9.60,-0.07,-2.21,9.85
-2.03,-9.62,0.05,9.83,-9.59,-0.09,-2.19,9.84
-2.03,-9.63,0.05,9.84,-9.63,-0.08,-2.18,9.88
-2.01,-9.60,0.05,9.81,-9.62,-0.08,-2.17,9.86
-2.02,-9.62,0.02,9.83,-9.61,-0.06,-2.25,9.87
-2.03,-9.62,0.06,9.83,-9.60,-0.07,-2.22,9.86
-2.05,-9.61,0.04,9.83,-9.60,-0.06,-2.19,9.85
-2.06,-9.60,0.05,9.82,-9.61,-0.07,-2.21,9.86
-2.02,-9.60,0.05,9.81,-9.62,-0.07,-2.21,9.87
-2.02,-9.58,0.02,9.79,-9.58,-0.08,-2.21,9.83
-2.03,-9.60,0.02,9.81,-9.61,-0.08,-2.25,9.87
-2.05,-9.58,0.03,9.79,-9.61,-0.08,-2.23,9.87
-2.02,-9.58,0.01,9.80,-9.60,-0.08,-2.20,9.85
-2.04,-9.59,0.04,9.81,-9.61,-0.10,-2.21,9.87
-2.02,-9.60,0.03,9.82,-9.63,-0.07,-2.21,9.88
-2.04,-9.59,0.02,9.80,-9.61,-0.08,-2.22,9.86
-2.03,-9.62,0.02,9.83,-9.62,-0.09,-2.21,9.87
-2.00,-9.59,0.03,9.80,-9.61,-0.08,-2.23,9.87
-2.00,-9.59,0.04,9.80,-9.59,-0.08,-2.21,9.84
-2.00,-9.60,0.01,9.81,-9.63,-0.07,-2.23,9.89
-2.02,-9.60,0.04,9.81,-9.60,-0.06,-2.26,9.86
-2.09,-9.65,0.14,9.88,-9.60,-0.07,-2.28,9.86
-2.07,-9.60,0.16,9.83,-9.58,-0.05,-2.13,9.81
-1.99,-9.50,0.02,9.70,-9.58,-0.05,-2.19,9.83
-1.98,-9.54,-0.08,9.75,-9.59,-0.08,-2.22,9.84
-2.01,-9.69,-0.02,9.90,-9.55,-0.11,-2.10,9.78
-2.03,-9.60,-0.03,9.81,-9.63,-0.08,-2.26,9.89
-2.07,-9.65,0.05,9.87,-9.60,-0.07,-2.29,9.87
-2.10,-9.61,0.10,9.84,-9.60,-0.08,-2.23,9.86
-2.06,-9.58,0.04,9.80,-9.61,-0.07,-2.23,9.87
-2.07,-9.53,-0.04,9.75,-9.61,-0.06,-2.20,9.86
-2.09,-9.57,-0.03,9.79,-9.56,-0.08,-2.24,9.82
-2.08,-9.60,0.01,9.82,-9.61,-0.01,-2.17,9.85
-2.04,-9.61,0.03,9.83,-9.65,-0.08,-2.25,9.91
-2.00,-9.63,0.04,9.84,-9.66,-0.06,-2.16,9.90
-2.01,-9.65,0.02,9.86,-9.66,-0.06,-2.18,9.90
-2.03,-9.66,0.06,9.88,-9.65,-0.08,-2.16,9.89
-2.04,-9.63,0.01,9.84,-9.60,-0.05,-2.16,9.84
-2.05,-9.61,0.01,9.83,-9.60,-0.04,-2.17,9.85
-2.06,-9.59,0.02,9.81,-9.61,-0.03,-2.17,9.85
-2.04,-9.57,0.02,9.79,-9.60,-0.05,-2.17,9.85
-2.02,-9.55,0.02,9.76,-9.63,-0.07,-2.14,9.86
-2.01,-9.57,0.03,9.78,-9.58,-0.06,-2.18,9.83
-2.01,-9.56,0.04,9.77,-9.56,-0.08,-2.20,9.82
-2.01,-9.59,0.06,9.80,-9.59,-0.09,-2.19,9.83
-2.02,-9.61,0.02,9.82,-9.61,-0.06,-2.20,9.86
-2.04,-9.59,-0.00,9.80,-9.61,-0.05,-2.18,9.85
-2.03,-9.58,0.01,9.79,-9.60,-0.05,-2.17,9.84
-2.04,-9.59,0.00,9.80,-9.62,-0.06,-2.19,9.87
-2.01,-9.62,-0.00,9.83,-9.66,-0.04,-2.18,9.91
-2.05,-9.62,-0.07,9.84,-9.65,-0.05,-2.14,9.88
-2.09,-9.64,0.04,9.86,-9.65,-0.05,-2.23,9.91
-2.04,-9.67,0.05,9.88,-9.68,-0.05,-2.10,9.90
-2.02,-9.62,0.10,9.83,-9.68,-0.06,-2.23,9.94
-2.08,-9.62,0.01,9.84,-9.60,-0.08,-2.21,9.85
-2.04,-9.57,0.00,9.78,-9.58,-0.05,-2.20,9.83
-2.06,-9.57,0.01,9.79,-9.61,-0.05,-2.20,9.86
-2.04,-9.57,0.02,9.79,-9.61,-0.05,-2.19,9.86
-1.99,-9.55,0.01,9.76,-9.60,-0.07,-2.19,9.84
-1.98,-9.60,0.03,9.80,-9.61,-0.09,-2.17,9.85
-2.01,-9.62,0.01,9.83,-9.62,-0.05,-2.18,9.87
-2.00,-9.59,0.01,9.79,-9.61,-0.03,-2.20,9.86
-2.06,-9.63,0.03,9.85,-9.62,-0.05,-2.18,9.87
-2.05,-9.60,0.02,9.82,-9.62,-0.06,-2.23,9.87
-2.03,-9.61,0.01,9.83,-9.61,-0.04,-2.23,9.86
-2.02,-9.61,0.01,9.82,-9.62,-0.09,-2.21,9.87
-2.05,-9.57,0.02,9.79,-9.62,-0.08,-2.19,9.87
-2.03,-9.59,0.03,9.80,-9.59,-0.07,-2.22,9.85
-2.06,-9.56,0.05,9.78,-9.60,-0.06,-2.18,9.85
-2.03,-9.60,0.03,9.81,-9.63,-0.06,-2.20,9.88
-2.04,-9.61,0.00,9.82,-9.63,-0.05,-2.19,9.88
-2.07,-9.61,0.00,9.83,-9.64,-0.08,-2.23,9.89
-2.03,-9.63,0.04,9.84,-9.63,-0.07,-2.20,9.88
-2.04,-9.59,0.00,9.81,-9.61,-0.06,-2.20,9.86
-2.02,-9.60,0.05,9.81,-9.58,-0.03,-2.21,9.83
-2.05,-9.58,0.05,9.80,-9.60,-0.06,-2.18,9.84
-2.03,-9.59,0.04,9.80,-9.59,-0.06,-2.24,9.85
-2.03,-9.60,0.03,9.81,-9.60,-0.05,-2.18,9.85
-2.02,-9.58,0.02,9.79,-9.63,-0.06,-2.18,9.87
-2.06,-9.58,0.01,9.80,-9.60,-0.05,-2.16,9.84
-2.03,-9.60,0.04,9.81,-9.61,-0.06,-2.20,9.86
-2.02,-9.62,0.01,9.83,-9.59,-0.06,-2.19,9.84
-2.05,-9.60,0.05,9.81,-9.60,-0.08,-2.21,9.85
-2.02,-9.60,0.04,9.81,-9.60,-0.08,-2.21,9.85
-2.03,-9.57,0.04,9.79,-9.61,-0.07,-2.15,9.85
-2.03,-9.59,0.06,9.81,-9.63,-0.07,-2.18,9.87
-2.02,-9.59,0.05,9.80,-9.57,-0.09,-2.19,9.82
-2.02,-9.59,0.02,9.80,-9.60,-0.07,-2.21,9.86
-2.04,-9.61,0.04,9.83,-9.63,-0.04,-2.18,9.87
-2.03,-9.60,0.01,9.81,-9.61,-0.06,-2.23,9.86
-2.00,-9.61,0.00,9.82,-9.60,-0.07,-2.22,9.85
-2.00,-9.57,0.00,9.77,-9.62,-0.06,-2.23,9.87
-2.00,-9.60,0.00,9.81,-9.61,-0.05,-2.21,9.86
-2.04,-9.60,-0.00,9.81,-9.60,-0.04,-2.21,9.85
-2.05,-9.60,0.03,9.82,-9.63,-0.07,-2.23,9.89
-2.05,-9.60,0.01,9.82,-9.61,-0.08,-2.21,9.86
-2.03,-9.63,0.03,9.84,-9.62,-0.06,-2.19,9.87
-2.04,-9.59,0.05,9.80,-9.61,-0.03,-2.20,9.86
-2.02,-9.60,0.03,9.81,-9.60,-0.05,-2.20,9.85
-2.03,-9.58,0.03,9.79,-9.61,-0.03,-2.19,9.86
-2.04,-9.61,0.01,9.82,-9.60,-0.05,-2.20,9.85
-2.05,-9.60,0.02,9.82,-9.62,-0.08,-2.22,9.87
-2.02,-9.60,-0.00,9.81,-9.58,-0.05,-2.18,9.83
-2.04,-9.62,-0.03,9.83,-9.63,-0.05,-2.21,9.88
-2.07,-9.65,0.03,9.87,-9.62,-0.04,-2.24,9.87
-2.09,-9.62,0.14,9.85,-9.62,-0.06,-2.23,9.87
-2.04,-9.57,0.04,9.79,-9.60,-0.05,-2.14,9.83
-2.00,-9.49,-0.07,9.70,-9.62,-0.06,-2.31,9.89
-2.01,-9.68,-0.04,9.88,-9.62,-0.08,-2.09,9.85
-2.04,-9.64,-0.03,9.86,-9.61,-0.10,-2.16,9.85
-2.04,-9.60,-0.02,9.81,-9.63,-0.08,-2.27,9.90
-2.10,-9.62,0.11,9.85,-9.58,-0.07,-2.21,9.84
-2.07,-9.56,0.08,9.78,-9.62,-0.06,-2.24,9.88
-2.10,-9.53,0.02,9.76,-9.59,-0.06,-2.16,9.83
-2.06,-9.53,-0.02,9.76,-9.61,-0.06,-2.24,9.87
-2.07,-9.58,0.00,9.80,-9.58,-0.04,-2.20,9.83
-2.03,-9.58,-0.00,9.80,-9.65,-0.06,-2.20,9.90
-2.03,-9.64,0.01,9.85,-9.70,-0.06,-2.22,9.95
-2.03,-9.67,0.00,9.88,-9.67,-0.06,-2.15,9.91
-2.01,-9.68,0.00,9.89,-9.65,-0.06,-2.17,9.89
-2.03,-9.65,0.04,9.86,-9.65,-0.04,-2.13,9.88
-2.07,-9.60,0.03,9.82,-9.63,-0.05,-2.15,9.87
-2.08,-9.59,0.00,9.82,-9.60,-0.05,-2.16,9.84
-2.07,-9.56,-0.02,9.78,-9.60,-0.04,-2.16,9.84
-1.99,-9.59,-0.01,9.79,-9.58,-0.07,-2.19,9.83
-2.03,-9.59,0.06,9.80,-9.60,-0.05,-2.18,9.85
-1.98,-9.58,0.03,9.78,-9.58,-0.07,-2.17,9.82
-1.99,-9.57,0.06,9.78,-9.59,-0.05,-2.18,9.83
-1.98,-9.58,0.03,9.79,-9.56,-0.04,-2.21,9.81
-2.03,-9.58,0.02,9.80,-9.60,-0.04,-2.23,9.86
-2.03,-9.58,0.03,9.79,-9.60,-0.05,-2.22,9.85
-2.06,-9.61,0.01,9.83,-9.59,-0.03,-2.22,9.85
-2.03,-9.61,0.03,9.82,-9.65,-0.04,-2.18,9.90
-2.06,-9.59,0.04,9.81,-9.62,-0.02,-2.21,9.87
-2.08,-9.63,-0.01,9.85,-9.65,-0.02,-2.29,9.92
-2.07,-9.63,0.06,9.85,-9.63,-0.09,-2.16,9.87
-2.04,-9.60,0.09,9.82,-9.65,-0.04,-2.19,9.90
-2.07,-9.62,0.08,9.84,-9.58,-0.08,-2.19,9.82
-2.05,-9.57,0.04,9.79,-9.55,-0.08,-2.20,9.80
-2.04,-9.57,0.02,9.78,-9.61,-0.05,-2.20,9.85
-2.08,-9.63,-0.02,9.85,-9.63,-0.05,-2.22,9.88
-2.03,-9.61,-0.00,9.82,-9.64,-0.06,-2.22,9.89
-2.04,-9.63,0.03,9.85,-9.64,-0.03,-2.19,9.88
-2.04,-9.63,-0.01,9.85,-9.65,-0.06,-2.21,9.90
-2.04,-9.64,0.05,9.85,-9.66,-0.08,-2.25,9.91
-2.07,-9.62,0.07,9.84,-9.62,-0.06,-2.25,9.88
-2.03,-9.63,0.03,9.84,-9.60,-0.06,-2.25,9.86
-2.06,-9.61,0.09,9.83,-9.58,-0.06,-2.26,9.84
-2.03,-9.60,0.05,9.81,-9.60,-0.03,-2.24,9.86
-2.03,-9.59,0.03,9.80,-9.59,-0.09,-2.23,9.85
-2.00,-9.60,0.09,9.80,-9.58,-0.06,-2.26,9.84
-2.03,-9.61,0.13,9.82,-9.59,-0.06,-2.23,9.85
-2.03,-9.60,0.10,9.81,-9.63,-0.10,-2.23,9.88
-2.07,-9.62,0.11,9.84,-9.63,-0.07,-2.24,9.88
-2.05,-9.58,0.14,9.80,-9.61,-0.09,-2.23,9.87
-2.01,-9.66,0.18,9.87,-9.57,-0.06,-2.28,9.83
-2.03,-9.58,0.15,9.79,-9.57,-0.06,-2.24,9.83
-2.05,-9.61,0.19,9.83,-9.60,-0.06,-2.26,9.87
-2.05,-9.56,0.14,9.78,-9.59,-0.05,-2.24,9.85
-2.05,-9.56,0.16,9.78,-9.57,-0.02,-2.25,9.83
-2.05,-9.56,0.17,9.78,-9.59,-0.03,-2.23,9.85
-2.10,-9.62,0.17,9.85,-9.62,-0.03,-2.26,9.88
-2.02,-9.62,0.12,9.83,-9.62,-0.05,-2.24,9.87
-2.09,-9.56,0.19,9.78,-9.60,-0.05,-2.22,9.85
-2.06,-9.61,0.20,9.83,-9.63,-0.07,-2.22,9.88
-2.07,-9.60,0.25,9.82,-9.61,-0.06,-2.23,9.86
-2.04,-9.58,0.24,9.80,-9.61,-0.05,-2.25,9.87
-2.05,-9.51,0.17,9.73,-9.59,-0.04,-2.24,9.85
-2.03,-9.54,0.20,9.76,-9.59,-0.04,-2.26,9.86
-2.04,-9.58,0.21,9.79,-9.58,-0.07,-2.24,9.83
-2.06,-9.59,0.21,9.81,-9.57,-0.06,-2.26,9.83
-2.05,-9.59,0.18,9.81,-9.63,-0.08,-2.25,9.89
-2.06,-9.61,0.19,9.83,-9.63,-0.07,-2.26,9.89
-2.07,-9.65,0.28,9.87,-9.61,-0.09,-2.22,9.87
-2.04,-9.61,0.24,9.83,-9.62,-0.09,-2.25,9.87
-2.04,-9.60,0.25,9.81,-9.65,-0.08,-2.26,9.91
-2.07,-9.62,0.25,9.85,-9.64,-0.10,-2.28,9.91
-2.04,-9.62,0.26,9.83,-9.60,-0.08,-2.24,9.86
-2.07,-9.59,0.29,9.81,-9.60,-0.07,-2.27,9.87
-2.03,-9.56,0.27,9.77,-9.60,-0.07,-2.29,9.87
-2.05,-9.61,0.28,9.84,-9.60,-0.07,-2.27,9.86
-2.05,-9.68,0.05,9.90,-9.60,-0.09,-2.28,9.87
-1.97,-9.50,0.49,9.71,-9.60,-0.10,-2.29,9.87
-2.05,-9.60,0.30,9.82,-9.62,-0.09,-2.31,9.89
-2.10,-9.63,0.24,9.86,-9.60,-0.08,-2.35,9.89
-2.04,-9.61,0.38,9.84,-9.58,-0.11,-2.30,9.86
-2.01,-9.54,0.26,9.75,-9.55,-0.09,-2.29,9.82
-2.03,-9.52,0.18,9.74,-9.57,-0.10,-2.47,9.88
-1.97,-9.55,0.20,9.75,-9.56,-0.08,-2.32,9.84
-1.96,-9.59,0.21,9.79,-9.59,-0.08,-2.32,9.87
-2.01,-9.65,0.20,9.85,-9.58,-0.13,-2.41,9.88
-2.04,-9.60,0.12,9.81,-9.50,-0.14,-2.32,9.78
-2.09,-9.57,0.37,9.80,-9.53,-0.10,-2.29,9.80
-2.09,-9.57,0.29,9.80,-9.56,-0.05,-2.27,9.83
-2.07,-9.59,0.22,9.81,-9.59,-0.04,-2.31,9.86
-2.08,-9.63,0.23,9.85,-9.64,-0.07,-2.29,9.91
-2.02,-9.67,0.23,9.88,-9.66,-0.09,-2.30,9.93
-1.98,-9.76,0.29,9.96,-9.64,-0.11,-2.34,9.93
-1.97,-9.70,0.39,9.90,-9.63,-0.16,-2.34,9.91
-2.03,-9.67,0.47,9.89,-9.61,-0.14,-2.32,9.89
-2.02,-9.59,0.32,9.81,-9.57,-0.13,-2.35,9.85
-2.04,-9.56,0.28,9.78,-9.56,-0.13,-2.36,9.85
-2.09,-9.54,0.28,9.77,-9.54,-0.08,-2.36,9.83
-2.07,-9.51,0.13,9.73,-9.49,-0.08,-2.36,9.78
-2.07,-9.57,0.21,9.80,-9.53,-0.09,-2.32,9.81
-2.04,-9.56,0.20,9.78,-9.53,-0.10,-2.33,9.81
-2.04,-9.59,0.29,9.81,-9.54,-0.09,-2.28,9.81
-2.07,-9.52,0.47,9.75,-9.58,-0.10,-2.33,9.86
-2.07,-9.57,0.38,9.80,-9.53,-0.09,-2.39,9.83
-2.07,-9.57,0.26,9.80,-9.55,-0.10,-2.35,9.83
-2.11,-9.57,0.27,9.80,-9.57,-0.07,-2.35,9.85
-2.03,-9.59,0.24,9.80,-9.59,-0.05,-2.31,9.86
-2.02,-9.61,0.16,9.82,-9.56,-0.06,-2.26,9.83
-2.05,-9.62,0.23,9.84,-9.64,-0.06,-2.48,9.96
-2.12,-9.66,0.32,9.90,-9.55,-0.11,-2.34,9.84
-2.07,-9.58,0.30,9.81,-9.66,-0.05,-2.35,9.94
-2.06,-9.58,0.14,9.80,-9.55,-0.13,-2.29,9.82
-2.09,-9.61,0.27,9.84,-9.57,-0.08,-2.39,9.86
-2.10,-9.60,0.33,9.83,-9.59,-0.09,-2.37,9.88
-2.04,-9.55,0.26,9.77,-9.58,-0.10,-2.37,9.87
-2.05,-9.59,0.17,9.81,-9.57,-0.11,-2.35,9.86
-2.04,-9.58,0.24,9.80,-9.57,-0.11,-2.35,9.86
-2.03,-9.55,0.24,9.77,-9.59,-0.11,-2.39,9.88
-2.05,-9.60,0.31,9.83,-9.58,-0.09,-2.41,9.88
-2.07,-9.62,0.29,9.85,-9.56,-0.09,-2.39,9.85
-2.03,-9.58,0.33,9.80,-9.54,-0.10,-2.32,9.82
-2.05,-9.58,0.31,9.80,-9.57,-0.08,-2.39,9.86
-2.03,-9.58,0.16,9.80,-9.56,-0.09,-2.39,9.86
-2.03,-9.55,0.29,9.76,-9.52,-0.09,-2.40,9.82
-2.08,-9.66,0.36,9.88,-9.55,-0.08,-2.38,9.84
-2.07,-9.59,0.29,9.82,-9.55,-0.06,-2.36,9.83
-2.07,-9.61,0.30,9.83,-9.59,-0.10,-2.34,9.87
-2.05,-9.61,0.32,9.83,-9.56,-0.14,-2.34,9.85
-2.09,-9.68,0.41,9.91,-9.60,-0.13,-2.36,9.89
-2.10,-9.61,0.41,9.85,-9.59,-0.13,-2.39,9.88
-2.09,-9.58,0.33,9.81,-9.60,-0.10,-2.40,9.90
-2.05,-9.64,0.36,9.86,-9.59,-0.10,-2.39,9.88
-2.06,-9.62,0.35,9.84,-9.57,-0.09,-2.41,9.87
-2.06,-9.59,0.27,9.81,-9.55,-0.11,-2.38,9.84
-2.03,-9.57,0.30,9.79,-9.56,-0.11,-2.40,9.85
-2.01,-9.59,0.26,9.80,-9.57,-0.11,-2.38,9.87
-2.05,-9.57,0.37,9.80,-9.58,-0.10,-2.40,9.87
-2.05,-9.59,0.25,9.81,-9.56,-0.10,-2.41,9.85
-2.02,-9.60,0.27,9.81,-9.58,-0.10,-2.39,9.87
-2.02,-9.58,0.36,9.80,-9.57,-0.12,-2.36,9.86
-2.05,-9.58,0.35,9.80,-9.57,-0.13,-2.38,9.86
-2.04,-9.55,0.32,9.77,-9.53,-0.12,-2.29,9.80
-2.01,-9.55,0.32,9.77,-9.54,-0.12,-2.38,9.83
-2.01,-9.54,0.31,9.75,-9.54,-0.12,-2.42,9.84
-2.04,-9.57,0.33,9.79,-9.54,-0.11,-2.45,9.85
-2.09,-9.58,0.36,9.81,-9.54,-0.11,-2.45,9.86
-2.07,-9.60,0.33,9.83,-9.56,-0.08,-2.46,9.87
-2.07,-9.58,0.34,9.81,-9.58,-0.09,-2.46,9.90
-2.06,-9.58,0.27,9.80,-9.52,-0.11,-2.40,9.82
-2.08,-9.61,0.29,9.83,-9.57,-0.06,-2.44,9.88
-2.15,-9.63,0.36,9.87,-9.56,-0.10,-2.44,9.87
-2.09,-9.55,0.42,9.79,-9.59,-0.10,-2.38,9.88
-2.08,-9.54,0.33,9.77,-9.52,-0.11,-2.36,9.81
-2.06,-9.54,0.36,9.77,-9.57,-0.12,-2.48,9.89
-1.97,-9.60,0.22,9.80,-9.57,-0.14,-2.40,9.87
-1.95,-9.68,0.35,9.88,-9.57,-0.18,-2.42,9.87
-1.95,-9.59,0.29,9.79,-9.56,-0.16,-2.44,9.86
-2.06,-9.55,0.25,9.77,-9.50,-0.11,-2.44,9.81
-2.15,-9.59,0.42,9.83,-9.51,-0.08,-2.38,9.80
-2.12,-9.53,0.35,9.77,-9.55,-0.05,-2.43,9.85
-2.09,-9.53,0.27,9.76,-9.57,-0.08,-2.40,9.87
-2.04,-9.58,0.11,9.80,-9.62,-0.11,-2.37,9.91
-2.01,-9.65,0.24,9.86,-9.63,-0.11,-2.34,9.91
-2.03,-9.71,0.50,9.94,-9.64,-0.11,-2.37,9.93
-2.00,-9.62,0.48,9.84,-9.58,-0.13,-2.42,9.88
-2.02,-9.62,0.40,9.84,-9.56,-0.15,-2.40,9.86
-1.99,-9.58,0.27,9.79,-9.54,-0.10,-2.38,9.83
-2.06,-9.54,0.36,9.77,-9.54,-0.10,-2.37,9.83
-2.07,-9.57,0.36,9.79,-9.52,-0.13,-2.35,9.80
-2.07,-9.55,0.36,9.78,-9.55,-0.11,-2.38,9.84
-2.03,-9.56,0.34,9.78,-9.50,-0.11,-2.35,9.78
-2.05,-9.55,0.33,9.77,-9.52,-0.11,-2.35,9.81
-2.02,-9.56,0.31,9.78,-9.53,-0.12,-2.35,9.82
-2.04,-9.57,0.36,9.79,-9.53,-0.13,-2.38,9.82
-2.06,-9.56,0.36,9.78,-9.53,-0.11,-2.39,9.83
-2.05,-9.58,0.34,9.80,-9.56,-0.12,-2.38,9.85
-2.07,-9.57,0.32,9.79,-9.56,-0.08,-2.39,9.86
-2.08,-9.58,0.32,9.81,-9.60,-0.08,-2.38,9.89
-2.06,-9.60,0.26,9.82,-9.54,-0.11,-2.26,9.80
-2.07,-9.57,0.43,9.80,-9.61,-0.08,-2.58,9.95
-2.08,-9.60,0.38,9.83,-9.53,-0.14,-2.35,9.81
-2.03,-9.59,0.36,9.81,-9.58,-0.13,-2.34,9.86
-2.07,-9.59,0.31,9.82,-9.60,-0.10,-2.36,9.88
-2.11,-9.64,0.41,9.88,-9.61,-0.09,-2.39,9.91
-2.07,-9.60,0.41,9.83,-9.55,-0.11,-2.38,9.84
-2.01,-9.57,0.25,9.79,-9.54,-0.12,-2.37,9.83
-2.02,-9.61,0.25,9.82,-9.57,-0.12,-2.39,9.86
-2.06,-9.60,0.27,9.82,-9.58,-0.12,-2.36,9.87
-2.02,-9.56,0.31,9.78,-9.57,-0.11,-2.41,9.87
-2.07,-9.59,0.33,9.82,-9.56,-0.09,-2.42,9.86
-2.05,-9.60,0.34,9.82,-9.54,-0.12,-2.39,9.84
-2.08,-9.60,0.36,9.83,-9.56,-0.11,-2.42,9.86
-2.03,-9.57,0.32,9.79,-9.54,-0.14,-2.40,9.84
-1.99,-9.52,0.29,9.74,-9.54,-0.14,-2.42,9.85
-2.00,-9.57,0.28,9.79,-9.52,-0.14,-2.41,9.82
-2.02,-9.56,0.27,9.78,-9.55,-0.13,-2.38,9.84
-2.02,-9.58,0.26,9.79,-9.57,-0.11,-2.38,9.86
-2.03,-9.59,0.31,9.81,-9.55,-0.13,-2.38,9.85
-2.08,-9.60,0.31,9.83,-9.55,-0.11,-2.39,9.85
-2.12,-9.60,0.31,9.83,-9.58,-0.09,-2.40,9.88
-2.08,-9.58,0.30,9.81,-9.55,-0.08,-2.39,9.85
-2.07,-9.61,0.30,9.83,-9.54,-0.09,-2.38,9.83
-2.06,-9.59,0.27,9.81,-9.58,-0.10,-2.38,9.87
-2.07,-9.63,0.39,9.85,-9.56,-0.10,-2.40,9.86
-2.07,-9.57,0.37,9.80,-9.58,-0.10,-2.40,9.87
-2.06,-9.59,0.31,9.81,-9.53,-0.12,-2.39,9.83
-2.05,-9.57,0.32,9.80,-9.56,-0.09,-2.36,9.85
-2.08,-9.60,0.31,9.83,-9.53,-0.12,-2.38,9.82
-2.05,-9.56,0.29,9.78,-9.57,-0.10,-2.39,9.86
-2.02,-9.55,0.17,9.76,-9.59,-0.12,-2.38,9.88
-2.05,-9.61,0.23,9.83,-9.59,-0.16,-2.41,9.89
-2.03,-9.56,0.28,9.78,-9.58,-0.14,-2.35,9.87
-2.04,-9.61,0.25,9.83,-9.57,-0.09,-2.40,9.86
-2.11,-9.61,0.30,9.85,-9.59,-0.09,-2.38,9.88
-2.12,-9.62,0.35,9.86,-9.59,-0.09,-2.48,9.91
-2.06,-9.60,0.36,9.82,-9.55,-0.11,-2.37,9.84
-1.96,-9.50,0.22,9.71,-9.52,-0.11,-2.37,9.81
-1.99,-9.54,0.18,9.75,-9.57,-0.10,-2.42,9.87
-1.98,-9.70,0.22,9.90,-9.60,-0.13,-2.37,9.89
-1.97,-9.62,0.28,9.83,-9.61,-0.14,-2.40,9.90
-2.04,-9.56,0.29,9.78,-9.55,-0.15,-2.44,9.86
-2.14,-9.59,0.39,9.83,-9.52,-0.06,-2.39,9.82
-2.12,-9.52,0.32,9.76,-9.57,-0.03,-2.41,9.87
-2.13,-9.52,0.25,9.76,-9.56,-0.05,-2.39,9.86
-2.08,-9.55,0.18,9.77,-9.55,-0.08,-2.36,9.84
-2.04,-9.62,0.14,9.83,-9.62,-0.09,-2.34,9.90
-1.99,-9.66,0.21,9.86,-9.62,-0.11,-2.38,9.91
-2.01,-9.64,0.26,9.85,-9.62,-0.14,-2.37,9.90
-2.01,-9.65,0.27,9.86,-9.61,-0.12,-2.35,9.89
-2.08,-9.61,0.31,9.84,-9.60,-0.11,-2.39,9.89
-2.09,-9.59,0.30,9.82,-9.55,-0.07,-2.38,9.85
-2.08,-9.54,0.31,9.77,-9.54,-0.08,-2.35,9.83
-2.08,-9.55,0.30,9.78,-9.54,-0.08,-2.32,9.82
-2.07,-9.57,0.29,9.79,-9.57,-0.09,-2.34,9.85
-2.03,-9.58,0.27,9.80,-9.57,-0.11,-2.33,9.85
-2.02,-9.55,0.28,9.76,-9.57,-0.11,-2.33,9.85
-1.99,-9.53,0.23,9.74,-9.56,-0.12,-2.35,9.85
-2.04,-9.55,0.25,9.77,-9.55,-0.09,-2.35,9.83
-2.05,-9.57,0.28,9.79,-9.53,-0.11,-2.35,9.82
-2.04,-9.57,0.32,9.79,-9.56,-0.08,-2.34,9.85
-2.06,-9.59,0.23,9.81,-9.62,-0.10,-2.35,9.90
-2.10,-9.58,0.24,9.81,-9.57,-0.08,-2.34,9.85
-1.99,-9.60,0.26,9.80,-9.63,-0.09,-2.31,9.90
-2.07,-9.60,0.17,9.82,-9.58,-0.09,-2.37,9.87
-2.10,-9.67,0.34,9.91,-9.58,-0.12,-2.42,9.88
-2.07,-9.61,0.39,9.84,-9.61,-0.07,-2.31,9.89
-2.10,-9.61,0.36,9.84,-9.60,-0.09,-2.37,9.89
-2.09,-9.68,0.43,9.91,-9.58,-0.07,-2.37,9.87
-2.05,-9.56,0.28,9.78,-9.59,-0.08,-2.36,9.88
-2.07,-9.56,0.21,9.79,-9.56,-0.06,-2.32,9.84
-2.01,-9.55,0.22,9.76,-9.57,-0.08,-2.33,9.85
-2.01,-9.60,0.22,9.81,-9.56,-0.11,-2.32,9.84
-2.04,-9.59,0.26,9.81,-9.58,-0.11,-2.35,9.86
-2.04,-9.63,0.21,9.85,-9.56,-0.11,-2.36,9.84
-2.07,-9.63,0.30,9.85,-9.60,-0.09,-2.39,9.89
-2.08,-9.61,0.33,9.84,-9.58,-0.09,-2.34,9.86
-2.08,-9.52,0.48,9.76,-9.54,-0.09,-2.37,9.84
-2.06,-9.62,0.45,9.85,-9.57,-0.08,-2.39,9.87
-2.02,-9.56,0.26,9.78,-9.57,-0.08,-2.36,9.85
-2.02,-9.58,0.24,9.79,-9.57,-0.10,-2.37,9.86
-2.04,-9.63,0.25,9.85,-9.58,-0.10,-2.35,9.86
-2.07,-9.65,0.24,9.87,-9.60,-0.09,-2.35,9.88
-2.07,-9.61,0.30,9.83,-9.55,-0.12,-2.35,9.83
-2.05,-9.59,0.18,9.81,-9.58,-0.11,-2.38,9.87
-2.02,-9.49,-0.09,9.70,-9.59,-0.08,-2.35,9.87
-2.06,-9.61,0.15,9.83,-9.59,-0.10,-2.33,9.87
-2.04,-9.57,0.22,9.78,-9.60,-0.09,-2.37,9.89
-2.04,-9.58,0.25,9.80,-9.58,-0.08,-2.34,9.87
-2.06,-9.62,0.25,9.84,-9.59,-0.09,-2.37,9.88
-2.07,-9.60,0.24,9.82,-9.55,-0.08,-2.37,9.84
-2.04,-9.58,0.23,9.80,-9.54,-0.12,-2.34,9.82
-2.05,-9.56,0.18,9.78,-9.57,-0.08,-2.31,9.85
-2.07,-9.58,0.22,9.80,-9.56,-0.09,-2.32,9.83
-2.05,-9.54,0.29,9.77,-9.55,-0.07,-2.32,9.83
-2.10,-9.59,0.25,9.82,-9.57,-0.09,-2.35,9.85
-2.07,-9.60,0.26,9.82,-9.57,-0.06,-2.31,9.84
-2.05,-9.60,0.23,9.82,-9.60,-0.11,-2.34,9.89
-2.06,-9.63,0.11,9.85,-9.57,-0.08,-2.32,9.85
-2.06,-9.59,0.22,9.81,-9.60,-0.08,-2.31,9.87
-2.07,-9.64,0.32,9.86,-9.59,-0.10,-2.33,9.87
-2.01,-9.51,0.11,9.72,-9.60,-0.08,-2.29,9.87
-2.07,-9.59,0.17,9.82,-9.58,-0.11,-2.33,9.86
-2.20,-9.67,0.36,9.92,-9.62,-0.08,-2.43,9.92
-2.12,-9.64,0.34,9.88,-9.54,-0.06,-2.29,9.81
-2.08,-9.52,0.19,9.74,-9.55,-0.09,-2.27,9.81
-2.04,-9.58,0.17,9.80,-9.60,-0.09,-2.42,9.90
-2.01,-9.59,0.09,9.80,-9.60,-0.10,-2.26,9.87
-1.98,-9.63,0.28,9.84,-9.60,-0.06,-2.35,9.88
-2.09,-9.59,0.26,9.82,-9.54,-0.10,-2.45,9.85
-2.09,-9.57,0.31,9.81,-9.53,-0.07,-2.34,9.81
-2.09,-9.50,0.29,9.74,-9.55,-0.04,-2.29,9.82
-2.10,-9.52,0.23,9.76,-9.55,-0.07,-2.36,9.84
-2.09,-9.56,0.26,9.79,-9.56,-0.05,-2.36,9.84
-2.10,-9.58,0.27,9.81,-9.59,-0.04,-2.31,9.87
-2.04,-9.51,-0.05,9.73,-9.59,-0.06,-2.29,9.86
-2.04,-9.63,0.14,9.85,-9.64,-0.09,-2.32,9.92
-2.02,-9.65,0.22,9.86,-9.61,-0.10,-2.30,9.89
-2.03,-9.66,0.23,9.87,-9.60,-0.07,-2.29,9.87
-2.04,-9.66,0.22,9.88,-9.59,-0.08,-2.29,9.86
-2.08,-9.64,0.20,9.87,-9.58,-0.08,-2.27,9.84
-2.03,-9.51,0.12,9.72,-9.57,-0.06,-2.24,9.83
-2.04,-9.53,0.02,9.75,-9.57,-0.07,-2.25,9.83
-2.04,-9.57,0.16,9.79,-9.55,-0.08,-2.23,9.81
-2.04,-9.57,0.21,9.79,-9.52,-0.05,-2.22,9.78
-2.04,-9.56,0.22,9.78,-9.62,-0.10,-2.45,9.93
-2.05,-9.58,0.22,9.80,-9.57,-0.09,-2.18,9.81
-2.02,-9.60,0.23,9.81,-9.59,-0.11,-2.32,9.87
-2.09,-9.73,0.20,9.95,-9.56,-0.08,-2.18,9.81
-2.03,-9.57,0.06,9.78,-9.60,-0.10,-2.25,9.86
-2.07,-9.62,0.29,9.85,-9.59,-0.06,-2.25,9.85
-2.06,-9.64,0.23,9.86,-9.65,-0.07,-2.26,9.91
-2.04,-9.61,0.23,9.83,-9.65,-0.05,-2.24,9.91
-2.07,-9.59,0.12,9.81,-9.58,-0.04,-2.27,9.85
-2.09,-9.65,0.22,9.88,-9.63,-0.04,-2.34,9.91
-2.10,-9.66,0.29,9.89,-9.65,-0.06,-2.26,9.91
-2.03,-9.56,0.18,9.77,-9.60,-0.09,-2.27,9.86
-2.08,-9.54,0.15,9.77,-9.58,-0.12,-2.25,9.84
-2.09,-9.56,0.17,9.78,-9.58,-0.05,-2.24,9.84
-2.10,-9.60,0.18,9.83,-9.62,-0.01,-2.27,9.89
-2.09,-9.57,0.14,9.80,-9.61,-0.04,-2.23,9.86
-2.04,-9.57,0.12,9.78,-9.60,-0.10,-2.23,9.85
-2.03,-9.59,0.14,9.81,-9.62,-0.07,-2.21,9.87
-2.06,-9.61,0.15,9.83,-9.64,-0.05,-2.25,9.90
-2.06,-9.56,0.08,9.78,-9.62,-0.07,-2.22,9.88
-2.04,-9.63,0.09,9.84,-9.61,-0.07,-2.25,9.88
-2.04,-9.60,0.19,9.81,-9.61,-0.10,-2.28,9.88
-2.08,-9.60,0.19,9.82,-9.58,-0.08,-2.26,9.84
-2.06,-9.56,0.17,9.79,-9.59,-0.08,-2.24,9.85
-2.06,-9.58,0.13,9.80,-9.57,-0.07,-2.24,9.83
-2.06,-9.68,0.17,9.89,-9.59,-0.07,-2.25,9.85
-2.02,-9.54,0.16,9.76,-9.57,-0.08,-2.24,9.83
-2.07,-9.63,0.16,9.85,-9.62,-0.09,-2.25,9.88
-2.07,-9.60,0.12,9.82,-9.62,-0.08,-2.26,9.88
-2.05,-9.61,0.15,9.83,-9.61,-0.07,-2.25,9.87
-2.07,-9.57,0.15,9.79,-9.61,-0.06,-2.26,9.87
-2.08,-9.66,0.16,9.88,-9.60,-0.08,-2.25,9.86
-2.08,-9.60,0.15,9.83,-9.60,-0.07,-2.27,9.87
-2.09,-9.64,0.14,9.86,-9.62,-0.07,-2.25,9.88
-2.04,-9.55,0.09,9.76,-9.58,-0.08,-2.26,9.85
-2.05,-9.58,0.11,9.80,-9.61,-0.06,-2.24,9.87
-2.07,-9.57,0.12,9.79,-9.58,-0.06,-2.24,9.84
-2.07,-9.58,0.11,9.80,-9.59,-0.06,-2.22,9.84
-2.07,-9.59,0.14,9.81,-9.57,-0.07,-2.22,9.83
-2.04,-9.60,0.13,9.82,-9.60,-0.08,-2.24,9.86
-2.04,-9.57,0.05,9.78,-9.60,-0.08,-2.22,9.86
-2.05,-9.60,0.10,9.82,-9.59,-0.06,-2.23,9.85
-2.08,-9.58,0.10,9.81,-9.57,-0.09,-2.25,9.84
-2.05,-9.60,0.08,9.81,-9.63,-0.08,-2.24,9.88
-2.04,-9.58,0.12,9.79,-9.58,-0.07,-2.24,9.84
-2.06,-9.60,0.11,9.82,-9.60,-0.06,-2.22,9.86
-2.04,-9.65,0.12,9.86,-9.61,-0.08,-2.24,9.87
-2.05,-9.56,0.05,9.78,-9.62,-0.06,-2.24,9.87
-2.06,-9.58,0.07,9.80,-9.61,-0.08,-2.25,9.87
-2.05,-9.60,0.07,9.82,-9.59,-0.07,-2.25,9.85
-2.08,-9.57,0.07,9.79,-9.63,-0.09,-2.26,9.89
-2.04,-9.56,-0.01,9.77,-9.60,-0.10,-2.23,9.86
-2.03,-9.62,0.05,9.83,-9.60,-0.07,-2.21,9.85
-2.04,-9.61,0.12,9.83,-9.63,-0.09,-2.23,9.89
-2.02,-9.62,0.11,9.83,-9.59,-0.08,-2.22,9.84
-2.06,-9.60,0.10,9.82,-9.59,-0.08,-2.24,9.84
-2.05,-9.57,0.09,9.79,-9.59,-0.11,-2.25,9.85
-2.03,-9.51,0.09,9.73,-9.59,-0.07,-2.25,9.85
-2.04,-9.57,0.13,9.78,-9.58,-0.09,-2.26,9.84
-2.01,-9.57,0.10,9.77,-9.59,-0.08,-2.23,9.85
-2.01,-9.61,0.09,9.82,-9.61,-0.09,-2.20,9.86
-2.11,-9.63,0.09,9.86,-9.61,-0.05,-2.28,9.88
-2.15,-9.76,0.32,10.00,-9.61,-0.09,-2.25,9.87
-2.05,-9.54,0.15,9.76,-9.56,-0.10,-2.10,9.78
-1.97,-9.50,-0.00,9.70,-9.60,-0.09,-2.35,9.89
-2.01,-9.66,0.06,9.87,-9.57,-0.09,-2.08,9.79
-1.98,-9.63,-0.04,9.83,-9.61,-0.08,-2.22,9.86
-2.05,-9.63,0.03,9.85,-9.63,-0.08,-2.33,9.91
-2.09,-9.65,0.16,9.88,-9.58,-0.07,-2.29,9.85
-2.06,-9.56,0.14,9.78,-9.60,-0.05,-2.21,9.85
-2.07,-9.54,0.07,9.76,-9.57,-0.08,-2.21,9.82
-2.09,-9.59,0.01,9.81,-9.57,-0.08,-2.26,9.84
-2.09,-9.53,-0.03,9.76,-9.56,-0.03,-2.24,9.82
-2.02,-9.59,0.04,9.80,-9.65,-0.04,-2.22,9.90
-2.04,-9.62,0.06,9.83,-9.65,-0.11,-2.20,9.90
-2.02,-9.65,0.05,9.86,-9.65,-0.12,-2.22,9.90
-2.04,-9.66,0.06,9.88,-9.64,-0.09,-2.22,9.90
-2.02,-9.74,0.08,9.95,-9.63,-0.08,-2.20,9.88
-2.07,-9.61,0.10,9.83,-9.58,-0.08,-2.18,9.83
-2.07,-9.57,0.05,9.79,-9.58,-0.05,-2.19,9.82
-2.06,-9.57,0.05,9.79,-9.60,-0.04,-2.18,9.85
-2.05,-9.56,0.03,9.78,-9.58,-0.07,-2.15,9.82
-2.00,-9.59,0.07,9.80,-9.61,-0.09,-2.18,9.85
-2.03,-9.60,0.06,9.81,-9.60,-0.08,-2.22,9.85
-2.06,-9.56,0.07,9.78,-9.61,-0.10,-2.19,9.86
-2.05,-9.55,0.06,9.77,-9.60,-0.09,-2.21,9.85
-2.04,-9.59,0.01,9.80,-9.62,-0.08,-2.22,9.87
-2.06,-9.60,0.02,9.82,-9.57,-0.10,-2.20,9.82
-2.06,-9.55,0.05,9.77,-9.58,-0.08,-2.18,9.83
-2.06,-9.59,0.05,9.81,-9.62,-0.07,-2.20,9.87
-2.04,-9.62,0.03,9.83,-9.67,-0.08,-2.19,9.91
-2.01,-9.63,0.07,9.84,-9.65,-0.04,-2.21,9.90
-2.09,-9.66,0.11,9.88,-9.66,-0.05,-2.24,9.92
-2.05,-9.60,0.11,9.81,-9.62,-0.10,-2.28,9.88
-2.03,-9.57,0.01,9.78,-9.59,-0.07,-2.14,9.82
-2.07,-9.59,0.02,9.81,-9.58,-0.08,-2.19,9.83
-2.07,-9.59,0.01,9.81,-9.57,-0.07,-2.24,9.83
-2.05,-9.59,0.05,9.80,-9.60,-0.06,-2.31,9.88
-2.04,-9.57,-0.00,9.79,-9.60,-0.04,-2.19,9.84
-2.01,-9.56,0.02,9.77,-9.61,-0.05,-2.18,9.85
-2.03,-9.59,0.01,9.80,-9.65,-0.06,-2.16,9.89
-1.96,-9.49,-0.37,9.69,-9.68,-0.07,-2.19,9.92
-1.99,-9.67,-0.01,9.87,-9.65,-0.07,-2.19,9.89
-2.04,-9.62,0.04,9.83,-9.63,-0.07,-2.20,9.88
-2.00,-9.60,0.01,9.81,-9.64,-0.06,-2.20,9.89
-2.04,-9.61,-0.00,9.82,-9.63,-0.07,-2.21,9.88
-2.05,-9.62,0.08,9.84,-9.60,-0.06,-2.22,9.86
-2.07,-9.60,0.06,9.82,-9.62,-0.08,-2.21,9.87
-2.06,-9.56,0.06,9.78,-9.58,-0.06,-2.22,9.83
-2.04,-9.55,0.03,9.77,-9.60,-0.07,-2.22,9.86
-2.02,-9.58,0.03,9.79,-9.60,-0.09,-2.20,9.85
-2.01,-9.62,0.01,9.83,-9.63,-0.09,-2.21,9.88
-2.04,-9.60,0.05,9.81,-9.62,-0.10,-2.24,9.87
-2.03,-9.62,0.04,9.83,-9.62,-0.08,-2.21,9.87
-2.05,-9.60,0.03,9.82,-9.60,-0.07,-2.23,9.86
-2.04,-9.62,0.07,9.83,-9.62,-0.05,-2.21,9.87
-2.03,-9.57,0.03,9.79,-9.61,-0.05,-2.22,9.86
-2.03,-9.61,0.05,9.82,-9.60,-0.05,-2.18,9.85
-2.06,-9.60,0.03,9.82,-9.62,-0.05,-2.20,9.87
-2.06,-9.60,0.05,9.81,-9.62,-0.06,-2.20,9.87
-2.03,-9.58,0.06,9.80,-9.60,-0.06,-2.23,9.85
-2.08,-9.57,0.05,9.80,-9.60,-0.10,-2.20,9.85
-2.03,-9.58,0.03,9.79,-9.60,-0.09,-2.19,9.85
-2.00,-9.60,0.03,9.80,-9.58,-0.10,-2.20,9.83
-2.05,-9.60,0.02,9.82,-9.58,-0.08,-2.21,9.84
-2.04,-9.59,0.05,9.80,-9.60,-0.06,-2.20,9.84
-2.04,-9.59,0.04,9.80,-9.61,-0.04,-2.20,9.86
-2.05,-9.57,0.04,9.79,-9.60,-0.06,-2.18,9.84
-2.02,-9.59,0.06,9.80,-9.61,-0.04,-2.20,9.86
-2.04,-9.58,0.05,9.79,-9.63,-0.05,-2.20,9.87
-2.05,-9.60,0.05,9.81,-9.61,-0.06,-2.20,9.86
-2.05,-9.60,0.06,9.82,-9.59,-0.03,-2.25,9.85
-2.06,-9.61,0.04,9.83,-9.58,-0.07,-2.20,9.83
-2.06,-9.60,0.04,9.82,-9.61,-0.07,-2.21,9.86
-2.04,-9.61,0.03,9.82,-9.60,-0.07,-2.20,9.85
-2.02,-9.60,0.06,9.81,-9.62,-0.06,-2.22,9.87
-2.03,-9.61,0.02,9.83,-9.61,-0.06,-2.19,9.86
-2.03,-9.60,0.03,9.81,-9.61,-0.08,-2.20,9.86
-2.06,-9.60,0.06,9.81,-9.62,-0.05,-2.22,9.87
-2.03,-9.61,0.04,9.82,-9.61,-0.06,-2.23,9.87
-2.03,-9.58,0.04,9.80,-9.59,-0.07,-2.22,9.84
-2.01,-9.57,0.03,9.78,-9.57,-0.09,-2.21,9.82
-2.04,-9.56,0.05,9.77,-9.58,-0.06,-2.23,9.83
-2.00,-9.59,0.02,9.80,-9.59,-0.04,-2.22,9.85
-2.04,-9.57,0.07,9.78,-9.60,-0.07,-2.22,9.86
-2.05,-9.58,0.06,9.79,-9.58,-0.04,-2.18,9.83
-2.05,-9.58,0.03,9.79,-9.60,-0.06,-2.20,9.85
-2.06,-9.59,0.01,9.81,-9.63,-0.06,-2.22,9.88
-2.06,-9.70,0.04,9.92,-9.58,-0.07,-2.22,9.84
-2.06,-9.60,0.03,9.82,-9.64,-0.06,-2.21,9.89
-2.02,-9.60,-0.02,9.80,-9.62,-0.06,-2.20,9.87
-2.02,-9.64,0.03,9.85,-9.64,-0.08,-2.20,9.89
-2.12,-9.68,0.07,9.91,-9.64,-0.05,-2.28,9.90
-2.08,-9.64,0.18,9.86,-9.58,-0.06,-2.12,9.81
-2.01,-9.48,-0.04,9.69,-9.64,-0.08,-2.21,9.89
-1.95,-9.58,-0.07,9.77,-9.65,-0.11,-2.31,9.93
-1.99,-9.66,-0.01,9.86,-9.60,-0.09,-2.06,9.82
-2.01,-9.64,-0.06,9.85,-9.64,-0.06,-2.27,9.90
-2.08,-9.63,0.05,9.85,-9.62,-0.07,-2.32,9.89
-2.07,-9.61,0.12,9.83,-9.58,-0.05,-2.20,9.83
-2.06,-9.51,0.06,9.73,-9.57,-0.08,-2.20,9.82
-2.05,-9.56,-0.02,9.78,-9.56,-0.05,-2.21,9.82
-2.09,-9.56,-0.03,9.79,-9.59,-0.06,-2.18,9.83
-2.08,-9.59,-0.01,9.81,-9.63,-0.03,-2.21,9.88
-2.00,-9.60,0.00,9.80,-9.63,-0.03,-2.21,9.89
-2.00,-9.64,0.01,9.84,-9.61,-0.06,-2.20,9.86
-2.03,-9.65,0.05,9.86,-9.67,-0.08,-2.18,9.91
-2.03,-9.66,0.02,9.87,-9.64,-0.08,-2.19,9.88
-2.02,-9.60,0.12,9.81,-9.60,-0.06,-2.17,9.84
-2.04,-9.61,0.05,9.82,-9.59,-0.06,-2.14,9.82
-2.04,-9.56,0.02,9.77,-9.59,-0.07,-2.18,9.84
-2.04,-9.58,0.00,9.80,-9.57,-0.07,-2.14,9.81
-2.01,-9.58,0.03,9.79,-9.61,-0.06,-2.12,9.85
-1.99,-9.58,-0.01,9.78,-9.58,-0.08,-2.17,9.82
-2.02,-9.59,-0.01,9.80,-9.58,-0.08,-2.19,9.82
-2.02,-9.59,0.00,9.80,-9.60,-0.07,-2.22,9.85
-2.04,-9.71,-0.03,9.92,-9.61,-0.10,-2.22,9.86
-2.03,-9.59,-0.08,9.80,-9.62,-0.06,-2.23,9.87
-2.07,-9.58,-0.03,9.80,-9.59,-0.05,-2.19,9.84
-2.07,-9.62,-0.03,9.84,-9.64,-0.04,-2.22,9.89
-2.08,-9.64,0.02,9.86,-9.64,-0.05,-2.19,9.88
-2.04,-9.61,0.00,9.82,-9.68,-0.05,-2.18,9.92
-2.06,-9.66,-0.03,9.88,-9.62,-0.03,-2.19,9.86
-2.09,-9.64,0.07,9.87,-9.68,-0.04,-2.29,9.95
-2.03,-9.65,0.04,9.86,-9.62,-0.08,-2.19,9.87
-2.01,-9.58,0.02,9.79,-9.60,-0.07,-2.17,9.84
-2.01,-9.58,-0.03,9.79,-9.62,-0.08,-2.20,9.87
-2.07,-9.57,-0.01,9.80,-9.59,-0.08,-2.21,9.84
-2.07,-9.58,-0.00,9.80,-9.61,-0.06,-2.21,9.86
-2.04,-9.58,-0.01,9.79,-9.60,-0.05,-2.24,9.86
-2.00,-9.60,-0.02,9.81,-9.57,-0.07,-2.20,9.82
-1.98,-9.57,-0.01,9.77,-9.60,-0.06,-2.21,9.86
-1.99,-9.59,-0.00,9.79,-9.61,-0.05,-2.17,9.85
-2.02,-9.61,0.00,9.82,-9.62,-0.04,-2.18,9.86
-2.05,-9.61,0.01,9.82,-9.63,-0.05,-2.19,9.88
-2.06,-9.60,-0.02,9.82,-9.63,-0.06,-2.19,9.88
-2.06,-9.61,-0.01,9.83,-9.65,-0.05,-2.18,9.90
-2.07,-9.59,-0.00,9.81,-9.62,-0.03,-2.20,9.87
-2.07,-9.59,0.03,9.81,-9.62,-0.06,-2.20,9.87
-2.03,-9.60,0.02,9.82,-9.61,-0.04,-2.19,9.86
-2.01,-9.58,-0.00,9.79,-9.61,-0.06,-2.21,9.86
-2.06,-9.60,-0.01,9.82,-9.63,-0.09,-2.24,9.88
-2.01,-9.63,0.01,9.83,-9.61,-0.07,-2.18,9.85
-2.04,-9.61,0.00,9.83,-9.62,-0.08,-2.23,9.87
-2.06,-9.61,0.01,9.83,-9.60,-0.10,-2.22,9.86
-2.04,-9.63,0.01,9.85,-9.61,-0.07,-2.20,9.86
-2.01,-9.61,0.03,9.82,-9.61,-0.07,-2.18,9.85
-2.03,-9.62,0.03,9.84,-9.62,-0.05,-2.21,9.87
-2.04,-9.63,0.03,9.84,-9.60,-0.06,-2.22,9.85
-2.05,-9.60,0.02,9.81,-9.60,-0.06,-2.19,9.84
-2.06,-9.61,0.01,9.83,-9.58,-0.06,-2.19,9.83
-2.02,-9.62,0.04,9.83,-9.62,-0.04,-2.18,9.86
-2.02,-9.60,0.02,9.81,-9.63,-0.07,-2.22,9.88
-2.04,-9.61,0.00,9.82,-9.59,-0.08,-2.20,9.84
-2.02,-9.59,0.04,9.80,-9.60,-0.07,-2.25,9.86
-2.05,-9.62,0.01,9.84,-9.62,-0.08,-2.21,9.87
-2.05,-9.62,0.00,9.83,-9.60,-0.07,-2.23,9.86
-2.04,-9.61,0.03,9.83,-9.58,-0.04,-2.21,9.83
-2.03,-9.59,0.02,9.80,-9.60,-0.07,-2.23,9.85
-2.03,-9.59,0.02,9.80,-9.62,-0.08,-2.29,9.89
-2.05,-9.61,0.05,9.83,-9.62,-0.08,-2.24,9.88
-2.06,-9.60,0.02,9.82,-9.62,-0.06,-2.23,9.87
-2.06,-9.59,0.05,9.81,-9.61,-0.06,-2.26,9.88
-2.07,-9.61,0.03,9.83,-9.61,-0.05,-2.26,9.87
-2.07,-9.59,0.07,9.81,-9.62,-0.06,-2.25,9.88
-2.06,-9.58,0.05,9.80,-9.58,-0.07,-2.22,9.84
-2.06,-9.62,0.10,9.84,-9.60,-0.05,-2.26,9.86
-2.05,-9.59,0.08,9.80,-9.62,-0.07,-2.24,9.87
-2.05,-9.60,0.07,9.81,-9.60,-0.06,-2.23,9.86
-2.05,-9.61,0.08,9.83,-9.59,-0.06,-2.27,9.85
-2.04,-9.60,0.08,9.82,-9.59,-0.07,-2.24,9.85
-2.01,-9.60,0.13,9.81,-9.59,-0.06,-2.26,9.85
-2.04,-9.58,0.13,9.80,-9.57,-0.07,-2.24,9.83
-2.03,-9.57,0.11,9.78,-9.59,-0.05,-2.26,9.85
-2.04,-9.59,0.13,9.81,-9.60,-0.08,-2.25,9.86
-2.03,-9.56,0.14,9.77,-9.60,-0.07,-2.25,9.86
-2.03,-9.58,0.17,9.79,-9.60,-0.08,-2.24,9.86
-2.04,-9.62,0.18,9.83,-9.60,-0.06,-2.22,9.85
-2.04,-9.59,0.15,9.81,-9.56,-0.05,-2.25,9.82
-2.08,-9.60,0.16,9.83,-9.59,-0.07,-2.26,9.85
-2.07,-9.59,0.17,9.81,-9.59,-0.07,-2.28,9.86
-2.06,-9.56,0.13,9.78,-9.58,-0.05,-2.28,9.84
-2.09,-9.58,0.13,9.81,-9.60,-0.06,-2.26,9.87
-2.02,-9.57,0.14,9.78,-9.60,-0.05,-2.26,9.86
-2.07,-9.63,0.12,9.85,-9.61,-0.03,-2.29,9.88
-2.15,-9.65,0.26,9.89,-9.62,-0.03,-2.37,9.91
-2.07,-9.59,0.32,9.82,-9.59,-0.08,-2.20,9.84
-2.03,-9.57,0.30,9.79,-9.58,-0.07,-2.20,9.83
-2.02,-9.51,0.09,9.72,-9.62,-0.08,-2.45,9.93
-2.03,-9.67,0.16,9.88,-9.53,-0.09,-2.12,9.77
-2.00,-9.61,0.13,9.81,-9.62,-0.07,-2.30,9.89
-2.09,-9.54,0.24,9.77,-9.57,-0.07,-2.40,9.87
-2.11,-9.63,0.37,9.86,-9.54,-0.09,-2.31,9.82
-2.07,-9.52,0.26,9.75,-9.54,-0.05,-2.23,9.79
-2.07,-9.52,0.11,9.74,-9.54,-0.06,-2.23,9.80
-2.11,-9.59,0.14,9.82,-9.60,-0.04,-2.27,9.87
-2.12,-9.66,0.20,9.89,-9.63,-0.04,-2.26,9.89
-2.07,-9.64,0.25,9.87,-9.64,-0.06,-2.27,9.91
-2.12,-9.88,-0.07,10.11,-9.65,-0.08,-2.28,9.92
-2.02,-9.64,0.31,9.86,-9.69,-0.09,-2.23,9.94
-2.06,-9.63,0.29,9.85,-9.58,-0.09,-2.25,9.84
-2.07,-9.56,0.24,9.79,-9.63,-0.06,-2.31,9.90
-2.03,-9.55,0.25,9.77,-9.55,-0.03,-2.29,9.82
-2.03,-9.54,0.11,9.76,-9.54,-0.07,-2.26,9.81
-2.02,-9.48,0.19,9.70,-9.54,-0.08,-2.26,9.80
-2.06,-9.58,0.24,9.81,-9.58,-0.06,-2.24,9.84
-2.02,-9.55,0.20,9.77,-9.59,-0.10,-2.27,9.85
-2.02,-9.56,0.18,9.77,-9.60,-0.06,-2.28,9.86
-2.04,-9.60,0.28,9.82,-9.60,-0.09,-2.28,9.87
-2.07,-9.58,0.27,9.80,-9.59,-0.08,-2.28,9.86
-2.07,-9.60,0.23,9.82,-9.60,-0.07,-2.29,9.87
-2.05,-9.59,0.21,9.81,-9.58,-0.03,-2.26,9.85
-2.08,-9.59,0.22,9.81,-9.58,-0.06,-2.29,9.85
-2.08,-9.64,0.28,9.87,-9.63,-0.06,-2.26,9.89
-2.01,-9.64,0.26,9.85,-9.66,-0.06,-2.28,9.93
-2.04,-9.58,0.17,9.79,-9.63,-0.06,-2.30,9.90
-2.06,-9.64,0.31,9.86,-9.61,-0.07,-2.42,9.91
-2.08,-9.62,0.26,9.84,-9.64,-0.07,-2.22,9.89
-2.02,-9.59,0.26,9.81,-9.61,-0.11,-2.31,9.88
-2.00,-9.48,0.19,9.69,-9.57,-0.05,-2.32,9.84
-2.05,-9.57,0.24,9.79,-9.57,-0.07,-2.34,9.85
-2.06,-9.63,0.35,9.86,-9.57,-0.06,-2.29,9.84
-2.01,-9.59,0.25,9.80,-9.58,-0.08,-2.31,9.86
-1.99,-9.59,0.18,9.79,-9.56,-0.09,-2.26,9.83
-1.99,-9.60,0.22,9.81,-9.59,-0.11,-2.36,9.88
-2.02,-9.62,0.20,9.83,-9.56,-0.09,-2.29,9.83
-2.08,-9.62,0.23,9.84,-9.57,-0.09,-2.30,9.84
-2.05,-9.58,0.24,9.80,-9.55,-0.07,-2.29,9.82
-2.04,-9.51,0.22,9.73,-9.55,-0.10,-2.29,9.82
-2.09,-9.65,0.27,9.88,-9.55,-0.08,-2.31,9.82
-2.07,-9.58,0.18,9.81,-9.60,-0.06,-2.37,9.89
-2.01,-9.54,-0.11,9.75,-9.54,-0.06,-2.34,9.82
-2.04,-9.56,0.25,9.77,-9.57,-0.08,-2.39,9.87
-2.05,-9.59,0.24,9.81,-9.59,-0.08,-2.33,9.87
-2.01,-9.59,0.20,9.80,-9.60,-0.10,-2.29,9.87
-2.02,-9.61,0.24,9.82,-9.57,-0.11,-2.33,9.85
-2.03,-9.61,0.26,9.82,-9.58,-0.09,-2.36,9.87
-2.04,-9.60,0.22,9.82,-9.58,-0.07,-2.32,9.86
-2.00,-9.54,0.17,9.74,-9.57,-0.07,-2.33,9.85
-2.04,-9.56,0.23,9.78,-9.60,-0.02,-2.36,9.88
-2.03,-9.59,0.25,9.81,-9.56,-0.04,-2.35,9.84
-2.04,-9.59,0.21,9.80,-9.59,-0.07,-2.34,9.88
-2.04,-9.62,0.22,9.84,-9.58,-0.08,-2.37,9.87
-2.02,-9.62,0.24,9.83,-9.59,-0.10,-2.35,9.88
-2.00,-9.62,0.22,9.83,-9.57,-0.10,-2.36,9.86
-2.00,-9.55,0.05,9.76,-9.53,-0.09,-2.33,9.81
-2.02,-9.55,0.28,9.76,-9.57,-0.11,-2.34,9.85
-2.03,-9.57,0.25,9.78,-9.57,-0.10,-2.37,9.86
-2.03,-9.58,0.29,9.80,-9.54,-0.10,-2.35,9.82
-2.04,-9.55,0.19,9.77,-9.55,-0.09,-2.36,9.83
-2.07,-9.56,0.23,9.78,-9.56,-0.10,-2.31,9.84
-2.06,-9.59,0.25,9.81,-9.56,-0.10,-2.35,9.84
-2.07,-9.58,0.22,9.80,-9.55,-0.07,-2.34,9.83
-2.06,-9.59,0.24,9.81,-9.56,-0.07,-2.36,9.85
-2.08,-9.58,0.23,9.80,-9.58,-0.07,-2.35,9.86
-2.05,-9.60,0.25,9.82,-9.56,-0.09,-2.34,9.84
-2.05,-9.59,0.25,9.81,-9.58,-0.12,-2.33,9.86
-2.06,-9.60,0.26,9.82,-9.56,-0.09,-2.35,9.85
-2.07,-9.57,0.24,9.80,-9.56,-0.11,-2.33,9.84
-2.08,-9.56,0.24,9.79,-9.58,-0.12,-2.33,9.86
-2.03,-9.57,0.27,9.78,-9.58,-0.09,-2.37,9.87
-2.03,-9.57,0.26,9.79,-9.59,-0.09,-2.32,9.87
-2.03,-9.59,0.26,9.80,-9.56,-0.10,-2.34,9.84
-2.06,-9.58,0.26,9.80,-9.56,-0.06,-2.34,9.84
-2.05,-9.58,0.26,9.80,-9.57,-0.07,-2.32,9.85
-2.07,-9.58,0.24,9.80,-9.57,-0.08,-2.34,9.85
-2.06,-9.59,0.27,9.81,-9.59,-0.09,-2.30,9.86
-2.05,-9.59,0.28,9.81,-9.58,-0.09,-2.35,9.86
-2.05,-9.59,0.18,9.81,-9.59,-0.06,-2.29,9.86
-2.03,-9.59,0.20,9.81,-9.57,-0.07,-2.32,9.85
-2.10,-9.64,0.27,9.87,-9.59,-0.07,-2.32,9.86
-2.10,-9.63,0.33,9.86,-9.59,-0.07,-2.37,9.88
-2.07,-9.57,0.36,9.80,-9.54,-0.12,-2.24,9.80
-2.00,-9.54,0.28,9.75,-9.58,-0.09,-2.33,9.86
-1.97,-9.54,0.19,9.75,-9.55,-0.08,-2.39,9.85
-1.96,-9.63,0.25,9.83,-9.58,-0.13,-2.31,9.86
-1.96,-9.61,0.21,9.81,-9.55,-0.15,-2.38,9.85
-2.04,-9.61,0.27,9.83,-9.52,-0.12,-2.38,9.82
-2.12,-9.58,0.38,9.82,-9.51,-0.10,-2.31,9.79
-2.10,-9.52,0.26,9.75,-9.59,-0.06,-2.33,9.87
-2.05,-9.56,0.14,9.78,-9.58,-0.05,-2.33,9.86
-2.05,-9.63,0.14,9.85,-9.63,-0.08,-2.32,9.90
-2.02,-9.68,0.18,9.90,-9.67,-0.10,-2.29,9.94
-1.99,-9.66,0.20,9.86,-9.67,-0.12,-2.34,9.95
-1.97,-9.66,0.21,9.86,-9.62,-0.12,-2.34,9.90
-2.03,-9.62,0.27,9.83,-9.60,-0.14,-2.34,9.88
-2.03,-9.60,0.27,9.82,-9.56,-0.10,-2.34,9.85
-2.08,-9.57,0.24,9.80,-9.56,-0.08,-2.34,9.84
-2.10,-9.57,0.20,9.80,-9.54,-0.07,-2.31,9.81
-2.06,-9.54,0.20,9.77,-9.55,-0.12,-2.29,9.82
-2.04,-9.56,0.21,9.78,-9.56,-0.10,-2.28,9.83
-2.02,-9.54,0.19,9.75,-9.57,-0.08,-2.28,9.84
-2.01,-9.57,0.18,9.78,-9.56,-0.09,-2.30,9.83
-2.02,-9.59,0.21,9.80,-9.59,-0.12,-2.33,9.87
-2.04,-9.61,0.19,9.83,-9.57,-0.12,-2.34,9.85
-2.02,-9.59,-0.05,9.80,-9.60,-0.11,-2.31,9.88
-2.07,-9.64,0.10,9.86,-9.60,-0.12,-2.34,9.88
-2.10,-9.66,0.43,9.90,-9.59,-0.11,-2.32,9.87
-2.11,-9.60,0.13,9.83,-9.62,-0.10,-2.31,9.90
-2.01,-9.64,0.14,9.85,-9.58,-0.11,-2.22,9.83
-2.05,-9.61,0.23,9.83,-9.65,-0.10,-2.44,9.95
-2.07,-9.68,0.27,9.90,-9.57,-0.14,-2.33,9.85
-2.03,-9.59,0.27,9.81,-9.64,-0.10,-2.30,9.91
-2.07,-9.58,0.18,9.81,-9.57,-0.14,-2.26,9.83
-2.10,-9.61,0.27,9.84,-9.59,-0.08,-2.35,9.87
-2.06,-9.56,0.25,9.78,-9.60,-0.08,-2.31,9.87
-2.05,-9.55,0.14,9.77,-9.59,-0.08,-2.32,9.86
-2.04,-9.58,0.18,9.79,-9.57,-0.09,-2.29,9.84
-2.03,-9.58,0.18,9.80,-9.59,-0.09,-2.31,9.87
-2.05,-9.58,0.18,9.80,-9.60,-0.07,-2.31,9.88
-2.02,-9.56,0.14,9.77,-9.58,-0.08,-2.34,9.86
-2.04,-9.59,0.17,9.81,-9.55,-0.09,-2.32,9.83
-2.07,-9.57,0.22,9.79,-9.58,-0.10,-2.35,9.86
-2.06,-9.59,0.22,9.81,-9.59,-0.08,-2.31,9.87
-2.06,-9.58,0.20,9.80,-9.58,-0.08,-2.34,9.86
-2.03,-9.58,0.19,9.79,-9.59,-0.11,-2.35,9.87
-2.05,-9.56,0.20,9.78,-9.59,-0.09,-2.34,9.87
-2.04,-9.58,0.18,9.80,-9.57,-0.09,-2.30,9.85
-2.03,-9.57,0.11,9.78,-9.58,-0.09,-2.31,9.85
-2.03,-9.60,0.20,9.81,-9.60,-0.09,-2.32,9.87
-2.11,-9.58,0.48,9.82,-9.59,-0.06,-2.32,9.87
-2.07,-9.62,0.27,9.84,-9.58,-0.09,-2.28,9.85
-2.08,-9.60,0.18,9.82,-9.56,-0.08,-2.30,9.84
-2.03,-9.54,0.12,9.76,-9.58,-0.06,-2.32,9.86
-2.08,-9.63,0.22,9.85,-9.57,-0.08,-2.30,9.85
-2.05,-9.60,0.20,9.81,-9.60,-0.07,-2.32,9.88
-2.06,-9.59,0.20,9.81,-9.56,-0.08,-2.32,9.84
-2.08,-9.60,0.20,9.82,-9.59,-0.07,-2.33,9.86
-2.07,-9.60,0.18,9.83,-9.57,-0.07,-2.32,9.85
-2.08,-9.59,0.20,9.82,-9.59,-0.07,-2.32,9.87
-2.07,-9.56,0.21,9.79,-9.58,-0.08,-2.34,9.86
-2.04,-9.56,0.19,9.78,-9.57,-0.11,-2.32,9.84
-2.06,-9.58,0.29,9.80,-9.57,-0.09,-2.32,9.85
-2.04,-9.59,0.20,9.81,-9.55,-0.09,-2.31,9.82
-2.05,-9.58,0.22,9.80,-9.59,-0.07,-2.34,9.87
-2.04,-9.57,0.20,9.79,-9.56,-0.08,-2.32,9.83
-2.03,-9.60,0.17,9.81,-9.58,-0.08,-2.30,9.85
-2.05,-9.62,0.23,9.84,-9.57,-0.09,-2.31,9.84
-2.01,-9.51,-0.04,9.72,-9.59,-0.08,-2.33,9.87
-2.08,-9.66,0.21,9.88,-9.60,-0.07,-2.32,9.87
-2.06,-9.62,0.17,9.84,-9.61,-0.07,-2.31,9.89
-2.05,-9.60,0.17,9.82,-9.58,-0.07,-2.31,9.86
-2.06,-9.58,0.17,9.80,-9.57,-0.06,-2.30,9.84
-2.04,-9.58,0.19,9.79,-9.58,-0.10,-2.34,9.86
-2.06,-9.59,0.19,9.81,-9.57,-0.08,-2.29,9.84
-2.05,-9.61,0.20,9.83,-9.59,-0.08,-2.33,9.87
-2.05,-9.61,0.21,9.83,-9.56,-0.08,-2.31,9.84
-2.03,-9.57,0.22,9.79,-9.59,-0.09,-2.30,9.86
-2.04,-9.58,0.17,9.80,-9.59,-0.06,-2.31,9.86
-2.04,-9.58,0.10,9.79,-9.58,-0.07,-2.32,9.86
-2.05,-9.57,0.18,9.79,-9.55,-0.08,-2.27,9.82
-2.00,-9.56,0.15,9.77,-9.59,-0.08,-2.27,9.86
-2.05,-9.60,0.16,9.81,-9.61,-0.07,-2.28,9.88
-2.07,-9.57,-0.09,9.79,-9.58,-0.06,-2.36,9.87
-2.06,-9.64,0.22,9.86,-9.58,-0.08,-2.35,9.87
-2.07,-9.53,0.14,9.75,-9.60,-0.07,-2.21,9.86
-2.00,-9.53,0.12,9.74,-9.62,-0.09,-2.37,9.90
-2.04,-9.73,0.31,9.94,-9.60,-0.12,-2.23,9.86
-1.99,-9.64,0.20,9.85,-9.64,-0.11,-2.27,9.91
-2.04,-9.60,0.21,9.82,-9.54,-0.12,-2.39,9.83
-2.08,-9.59,0.26,9.81,-9.55,-0.08,-2.31,9.82
-2.07,-9.52,0.20,9.75,-9.54,-0.06,-2.28,9.81
-2.07,-9.52,0.17,9.75,-9.56,-0.07,-2.26,9.83
-2.09,-9.56,0.22,9.79,-9.59,-0.05,-2.31,9.86
-2.08,-9.64,0.25,9.86,-9.61,-0.06,-2.30,9.88
-2.02,-9.67,0.18,9.88,-9.67,-0.07,-2.30,9.94
-1.99,-9.66,0.15,9.86,-9.64,-0.05,-2.28,9.91
-2.01,-9.64,0.15,9.85,-9.64,-0.09,-2.31,9.91
-2.03,-9.64,0.19,9.85,-9.59,-0.08,-2.29,9.86
-2.07,-9.60,0.22,9.83,-9.59,-0.08,-2.30,9.86
-2.07,-9.60,0.20,9.83,-9.57,-0.08,-2.28,9.83
-2.08,-9.58,0.17,9.80,-9.58,-0.10,-2.26,9.84
-2.06,-9.57,0.16,9.80,-9.57,-0.10,-2.23,9.83
-2.04,-9.56,0.12,9.77,-9.62,-0.07,-2.27,9.89
-2.03,-9.58,0.14,9.79,-9.61,-0.09,-2.22,9.87
-2.03,-9.57,0.16,9.79,-9.58,-0.10,-2.27,9.85
-2.01,-9.61,0.19,9.82,-9.59,-0.08,-2.24,9.85
-2.04,-9.63,0.24,9.85,-9.60,-0.08,-2.27,9.87
-2.04,-9.61,0.19,9.82,-9.61,-0.09,-2.26,9.87
-2.06,-9.60,0.16,9.82,-9.60,-0.08,-2.26,9.86
-2.04,-9.65,0.16,9.86,-9.60,-0.06,-2.25,9.86
-2.07,-9.60,0.17,9.82,-9.62,-0.06,-2.26,9.88
-2.02,-9.60,0.10,9.81,-9.63,-0.06,-2.24,9.89
-2.02,-9.63,0.15,9.84,-9.61,-0.06,-2.20,9.86
-2.11,-9.65,0.18,9.88,-9.62,-0.06,-2.37,9.91
-2.08,-9.62,0.23,9.84,-9.58,-0.08,-2.18,9.83
-2.03,-9.60,0.23,9.82,-9.60,-0.10,-2.26,9.86
-2.05,-9.62,0.23,9.84,-9.58,-0.10,-2.23,9.84
-2.04,-9.58,0.17,9.80,-9.59,-0.08,-2.29,9.86
-2.08,-9.60,0.08,9.82,-9.58,-0.08,-2.26,9.85
-2.06,-9.61,0.12,9.82,-9.60,-0.06,-2.26,9.87
-2.02,-9.59,0.13,9.80,-9.60,-0.06,-2.24,9.86
-1.98,-9.60,0.11,9.80,-9.60,-0.11,-2.23,9.85
-1.99,-9.61,0.13,9.82,-9.63,-0.09,-2.25,9.90
-2.04,-9.63,0.15,9.84,-9.59,-0.09,-2.29,9.86
-2.05,-9.61,0.15,9.83,-9.63,-0.08,-2.29,9.89
-2.02,-9.64,0.14,9.85,-9.60,-0.09,-2.27,9.87
-2.06,-9.60,0.16,9.82,-9.58,-0.09,-2.29,9.86
-2.03,-9.58,0.16,9.79,-9.60,-0.10,-2.29,9.87
-2.04,-9.58,0.17,9.80,-9.58,-0.09,-2.28,9.85
-2.01,-9.59,0.14,9.80,-9.59,-0.10,-2.30,9.86
-2.03,-9.60,0.17,9.82,-9.61,-0.09,-2.26,9.87
-2.02,-9.61,0.13,9.82,-9.62,-0.09,-2.31,9.89
-2.04,-9.61,0.13,9.82,-9.62,-0.08,-2.28,9.89
-2.02,-9.62,0.19,9.83,-9.62,-0.08,-2.25,9.88
-2.08,-9.60,0.17,9.83,-9.60,-0.09,-2.24,9.86
-2.03,-9.61,0.16,9.82,-9.62,-0.08,-2.27,9.89
-2.07,-9.63,0.18,9.85,-9.62,-0.07,-2.28,9.89
-2.01,-9.60,0.15,9.81,-9.57,-0.09,-2.25,9.83
-2.03,-9.55,0.14,9.76,-9.57,-0.08,-2.28,9.84
-2.05,-9.60,0.14,9.81,-9.56,-0.09,-2.24,9.82
-2.03,-9.57,0.14,9.79,-9.59,-0.06,-2.35,9.88
-2.01,-9.57,0.13,9.78,-9.56,-0.08,-2.20,9.81
-2.04,-9.57,0.16,9.79,-9.61,-0.05,-2.30,9.88
-2.04,-9.60,0.16,9.81,-9.58,-0.07,-2.21,9.83
-2.05,-9.58,0.16,9.80,-9.59,-0.10,-2.26,9.86
-2.05,-9.60,0.13,9.82,-9.61,-0.08,-2.27,9.87
-2.03,-9.58,0.09,9.79,-9.61,-0.06,-2.25,9.87
-2.05,-9.58,0.15,9.79,-9.61,-0.04,-2.25,9.87
-2.05,-9.61,0.13,9.83,-9.62,-0.09,-2.24,9.88
-2.06,-9.59,0.11,9.81,-9.59,-0.08,-2.25,9.85
-2.04,-9.60,0.13,9.81,-9.57,-0.08,-2.26,9.83
-2.07,-9.61,0.14,9.83,-9.61,-0.08,-2.24,9.87
-2.06,-9.62,0.12,9.83,-9.59,-0.08,-2.24,9.85
-2.05,-9.56,0.10,9.78,-9.63,-0.09,-2.27,9.89
-2.01,-9.62,-0.02,9.83,-9.63,-0.09,-2.26,9.90
-2.02,-9.56,-0.03,9.77,-9.63,-0.06,-2.27,9.89
-2.05,-9.62,0.11,9.83,-9.61,-0.08,-2.26,9.87
-2.06,-9.61,0.12,9.83,-9.60,-0.06,-2.27,9.87
-2.06,-9.57,0.16,9.79,-9.60,-0.07,-2.26,9.86
-2.05,-9.59,0.14,9.81,-9.56,-0.06,-2.23,9.82
-2.05,-9.60,0.13,9.82,-9.59,-0.07,-2.26,9.85
-2.09,-9.58,0.15,9.81,-9.56,-0.06,-2.24,9.82
-2.04,-9.59,0.15,9.81,-9.58,-0.07,-2.25,9.84
-2.04,-9.49,0.08,9.70,-9.59,-0.05,-2.25,9.85
-2.06,-9.58,0.14,9.80,-9.62,-0.05,-2.26,9.88
-2.03,-9.59,0.10,9.80,-9.60,-0.05,-2.22,9.85
-2.01,-9.56,0.02,9.77,-9.59,-0.06,-2.22,9.85
-2.05,-9.64,0.05,9.86,-9.62,-0.05,-2.26,9.88
-2.17,-9.66,0.21,9.90,-9.64,-0.08,-2.33,9.92
-2.06,-9.64,0.26,9.86,-9.59,-0.06,-2.13,9.83
-2.00,-9.49,0.03,9.70,-9.59,-0.06,-2.24,9.84
-1.97,-9.61,0.08,9.81,-9.60,-0.06,-2.25,9.86
-2.03,-9.68,0.04,9.89,-9.60,-0.09,-2.12,9.83
-2.03,-9.60,0.07,9.82,-9.62,-0.06,-2.28,9.89
-2.08,-9.62,0.18,9.84,-9.58,-0.08,-2.34,9.86
-2.05,-9.52,0.03,9.74,-9.55,-0.08,-2.23,9.81
-2.03,-9.51,0.09,9.73,-9.52,-0.08,-2.22,9.78
-2.04,-9.54,0.15,9.76,-9.58,-0.06,-2.23,9.83
-2.09,-9.58,0.06,9.81,-9.58,-0.05,-2.25,9.85
-2.09,-9.59,0.03,9.82,-9.58,-0.03,-2.24,9.84
-2.08,-9.61,0.10,9.83,-9.66,-0.06,-2.26,9.92
-2.02,-9.50,0.05,9.71,-9.66,-0.10,-2.23,9.92
-2.01,-9.67,0.12,9.88,-9.65,-0.10,-2.24,9.91
-2.03,-9.64,0.11,9.85,-9.62,-0.08,-2.23,9.88
-2.04,-9.63,0.12,9.85,-9.61,-0.06,-2.19,9.85
-2.05,-9.56,0.10,9.78,-9.60,-0.05,-2.22,9.85
-2.04,-9.59,0.10,9.80,-9.57,-0.04,-2.21,9.82
-2.04,-9.60,0.09,9.81,-9.62,-0.07,-2.21,9.87
-2.06,-9.57,0.07,9.79,-9.60,-0.09,-2.17,9.85
-2.02,-9.60,0.08,9.81,-9.60,-0.08,-2.21,9.85
-2.03,-9.67,0.13,9.88,-9.59,-0.09,-2.19,9.84
-2.01,-9.60,0.04,9.80,-9.61,-0.09,-2.22,9.86
-2.03,-9.60,0.08,9.81,-9.60,-0.10,-2.21,9.85
-2.08,-9.57,0.10,9.80,-9.57,-0.06,-2.22,9.83
-2.04,-9.59,0.06,9.80,-9.61,-0.09,-2.20,9.86
-2.05,-9.63,0.06,9.84,-9.61,-0.07,-2.25,9.87
-2.10,-9.62,0.05,9.85,-9.62,-0.08,-2.20,9.87
-2.09,-9.78,0.09,10.00,-9.65,-0.07,-2.22,9.90
-2.06,-9.61,0.02,9.83,-9.62,-0.07,-2.15,9.85
-2.08,-9.60,0.12,9.83,-9.67,-0.07,-2.32,9.95
-2.08,-9.64,0.16,9.86,-9.63,-0.09,-2.18,9.88
-2.02,-9.58,0.13,9.79,-9.63,-0.09,-2.23,9.89
-2.03,-9.55,0.05,9.76,-9.59,-0.10,-2.21,9.84
-2.07,-9.57,0.06,9.79,-9.59,-0.09,-2.25,9.85
-2.09,-9.60,0.04,9.83,-9.59,-0.07,-2.19,9.83
-2.02,-9.60,0.02,9.81,-9.61,-0.06,-2.24,9.86
-1.99,-9.57,0.04,9.78,-9.59,-0.10,-2.20,9.84
-1.98,-9.58,0.03,9.78,-9.61,-0.07,-2.20,9.86
-1.98,-9.60,0.04,9.80,-9.62,-0.08,-2.20,9.87
-2.03,-9.62,0.04,9.84,-9.62,-0.07,-2.21,9.87
-2.02,-9.62,0.06,9.83,-9.58,-0.06,-2.22,9.84
-2.03,-9.64,0.07,9.85,-9.61,-0.09,-2.23,9.87
-2.05,-9.63,0.09,9.84,-9.60,-0.09,-2.22,9.85
-2.03,-9.60,0.09,9.81,-9.62,-0.09,-2.22,9.88
-2.03,-9.56,0.11,9.77,-9.58,-0.08,-2.22,9.84
-2.00,-9.58,0.07,9.78,-9.60,-0.09,-2.21,9.85
-2.04,-9.63,-0.05,9.85,-9.64,-0.11,-2.21,9.89
-2.04,-9.57,0.10,9.79,-9.62,-0.12,-2.22,9.88
-2.04,-9.63,0.10,9.84,-9.63,-0.08,-2.21,9.88
-2.03,-9.64,0.03,9.85,-9.66,-0.08,-2.24,9.92
-2.07,-9.63,0.00,9.85,-9.63,-0.07,-2.17,9.87
-2.03,-9.61,0.03,9.83,-9.65,-0.09,-2.29,9.92
-2.04,-9.58,0.03,9.80,-9.56,-0.08,-2.16,9.80
-2.03,-9.56,0.09,9.78,-9.64,-0.08,-2.27,9.90
-2.04,-9.58,0.06,9.80,-9.60,-0.09,-2.22,9.86
-2.04,-9.59,0.06,9.80,-9.59,-0.06,-2.25,9.85
-2.04,-9.58,0.06,9.80,-9.58,-0.09,-2.24,9.84
-2.04,-9.59,0.06,9.81,-9.61,-0.07,-2.22,9.87
-2.04,-9.59,0.05,9.81,-9.60,-0.07,-2.21,9.85
-2.01,-9.57,0.10,9.78,-9.60,-0.07,-2.19,9.85
-2.02,-9.58,0.04,9.79,-9.62,-0.08,-2.19,9.87
-2.02,-9.61,0.07,9.82,-9.62,-0.08,-2.22,9.87
-2.02,-9.59,0.05,9.80,-9.63,-0.09,-2.21,9.88
-2.03,-9.62,0.06,9.84,-9.58,-0.07,-2.23,9.84
-2.05,-9.62,0.05,9.83,-9.61,-0.08,-2.23,9.86
-2.04,-9.57,0.06,9.78,-9.62,-0.08,-2.21,9.87
-2.02,-9.62,0.04,9.83,-9.60,-0.09,-2.22,9.85
-2.02,-9.58,0.05,9.79,-9.62,-0.07,-2.23,9.88
-2.04,-9.55,0.05,9.77,-9.59,-0.04,-2.23,9.85
-2.05,-9.59,0.03,9.81,-9.59,-0.07,-2.24,9.85
-2.03,-9.63,0.04,9.84,-9.60,-0.07,-2.22,9.85
-2.05,-9.62,0.02,9.83,-9.61,-0.07,-2.21,9.86
-2.05,-9.63,0.03,9.85,-9.62,-0.09,-2.23,9.88
-2.02,-9.61,0.03,9.82,-9.60,-0.08,-2.23,9.86
-2.05,-9.57,0.03,9.78,-9.61,-0.07,-2.22,9.86
-2.03,-9.58,0.03,9.80,-9.59,-0.05,-2.22,9.85
-2.03,-9.56,0.03,9.78,-9.57,-0.05,-2.22,9.83
-2.04,-9.60,0.04,9.81,-9.62,-0.08,-2.19,9.86
-2.05,-9.57,0.05,9.79,-9.60,-0.08,-2.21,9.86
-2.02,-9.63,0.04,9.84,-9.61,-0.07,-2.24,9.87
-2.03,-9.61,0.05,9.82,-9.61,-0.05,-2.21,9.86
-2.03,-9.59,0.05,9.80,-9.60,-0.06,-2.20,9.85
-2.04,-9.58,0.05,9.79,-9.61,-0.04,-2.22,9.86
-2.04,-9.65,0.07,9.87,-9.62,-0.05,-2.24,9.88
-2.01,-9.57,-0.03,9.78,-9.61,-0.07,-2.25,9.87
-2.02,-9.58,0.00,9.79,-9.60,-0.08,-2.24,9.86
-2.02,-9.59,-0.01,9.80,-9.59,-0.08,-2.19,9.84
-2.02,-9.60,0.02,9.81,-9.60,-0.06,-2.24,9.86
-2.13,-9.66,0.05,9.89,-9.64,-0.07,-2.29,9.90
-2.11,-9.63,0.17,9.86,-9.59,-0.05,-2.12,9.82
-1.99,-9.49,-0.03,9.70,-9.60,-0.08,-2.23,9.86
-1.96,-9.55,-0.06,9.75,-9.62,-0.08,-2.37,9.90
-1.99,-9.69,0.05,9.89,-9.56,-0.08,-2.11,9.79
-2.00,-9.60,-0.02,9.80,-9.63,-0.06,-2.26,9.89
-2.07,-9.63,0.06,9.85,-9.59,-0.06,-2.32,9.87
-2.09,-9.58,0.08,9.80,-9.59,-0.06,-2.25,9.85
-2.05,-9.54,0.07,9.76,-9.58,-0.03,-2.19,9.83
-2.08,-9.54,-0.01,9.76,-9.58,-0.05,-2.21,9.83
-2.08,-9.56,-0.03,9.79,-9.55,-0.02,-2.23,9.81
-2.08,-9.57,0.00,9.80,-9.59,-0.00,-2.22,9.85
-2.04,-9.58,0.01,9.80,-9.63,-0.03,-2.22,9.88
-1.99,-9.64,0.02,9.84,-9.65,-0.05,-2.23,9.90
-2.02,-9.65,0.06,9.86,-9.67,-0.08,-2.18,9.91
-2.01,-9.67,0.03,9.88,-9.63,-0.08,-2.21,9.88
-2.04,-9.65,0.05,9.86,-9.61,-0.09,-2.20,9.85
-2.07,-9.60,0.04,9.82,-9.61,-0.06,-2.19,9.86
-2.05,-9.60,0.03,9.82,-9.57,-0.05,-2.19,9.82
-2.02,-9.59,0.02,9.80,-9.64,-0.06,-2.16,9.88
-2.01,-9.58,0.02,9.79,-9.62,-0.09,-2.18,9.86
-2.01,-9.57,0.02,9.78,-9.60,-0.10,-2.18,9.84
-2.01,-9.60,0.05,9.80,-9.59,-0.07,-2.19,9.84
-1.99,-9.60,0.05,9.81,-9.59,-0.10,-2.20,9.84
-2.03,-9.61,0.02,9.83,-9.61,-0.08,-2.20,9.86
-2.06,-9.60,0.01,9.82,-9.58,-0.06,-2.22,9.83
-2.04,-9.56,0.02,9.78,-9.60,-0.08,-2.21,9.85
-2.06,-9.58,0.01,9.80,-9.58,-0.06,-2.20,9.83
-2.05,-9.57,0.02,9.79,-9.62,-0.04,-2.19,9.86
-2.04,-9.59,0.00,9.81,-9.65,-0.08,-2.19,9.90
-2.03,-9.62,0.05,9.83,-9.63,-0.06,-2.17,9.87
-2.05,-9.61,0.05,9.82,-9.65,-0.07,-2.24,9.91
-2.05,-9.67,0.11,9.89,-9.64,-0.06,-2.18,9.88
-2.00,-9.58,0.10,9.79,-9.65,-0.07,-2.18,9.90
-2.03,-9.59,0.01,9.80,-9.57,-0.07,-2.16,9.81
-2.09,-9.60,-0.00,9.82,-9.58,-0.05,-2.22,9.83
-2.06,-9.59,0.02,9.80,-9.59,-0.04,-2.21,9.84
-2.02,-9.60,0.01,9.81,-9.60,-0.04,-2.22,9.86
-1.98,-9.59,-0.00,9.79,-9.61,-0.09,-2.18,9.85
-2.00,-9.60,0.00,9.80,-9.63,-0.08,-2.17,9.87
-1.99,-9.61,0.02,9.82,-9.62,-0.07,-2.16,9.86
-2.02,-9.62,-0.00,9.83,-9.60,-0.06,-2.16,9.84
-2.01,-9.61,0.04,9.82,-9.63,-0.09,-2.22,9.89
-2.04,-9.61,0.03,9.82,-9.63,-0.08,-2.23,9.88
-2.03,-9.60,0.01,9.82,-9.61,-0.10,-2.22,9.87
-2.04,-9.60,0.03,9.82,-9.61,-0.06,-2.21,9.86
-2.02,-9.58,0.05,9.80,-9.62,-0.09,-2.23,9.87
-2.03,-9.59,0.02,9.80,-9.59,-0.08,-2.21,9.84
-2.01,-9.59,0.02,9.80,-9.61,-0.07,-2.21,9.86
-2.01,-9.59,0.01,9.79,-9.61,-0.07,-2.22,9.86
-2.05,-9.59,0.03,9.81,-9.59,-0.09,-2.20,9.84
-2.02,-9.63,0.04,9.84,-9.62,-0.08,-2.18,9.87
-2.04,-9.62,0.06,9.83,-9.62,-0.04,-2.20,9.87
-2.05,-9.59,0.06,9.81,-9.61,-0.05,-2.21,9.86
-2.06,-9.61,0.09,9.83,-9.61,-0.06,-2.23,9.87
-2.04,-9.58,0.05,9.79,-9.62,-0.03,-2.19,9.87
-2.03,-9.56,0.04,9.78,-9.57,-0.09,-2.19,9.82
-2.01,-9.60,0.04,9.81,-9.63,-0.06,-2.19,9.88
-2.02,-9.59,0.05,9.80,-9.58,-0.07,-2.20,9.83
-2.03,-9.59,0.02,9.80,-9.58,-0.06,-2.24,9.84
-2.01,-9.62,0.05,9.83,-9.59,-0.09,-2.23,9.85
-2.03,-9.60,0.02,9.81,-9.61,-0.06,-2.21,9.86
-2.01,-9.59,0.02,9.80,-9.60,-0.06,-2.20,9.85
-2.04,-9.60,0.03,9.81,-9.58,-0.07,-2.20,9.83
-2.04,-9.60,0.02,9.81,-9.61,-0.05,-2.21,9.86
-2.04,-9.61,0.03,9.83,-9.59,-0.06,-2.20,9.84
-2.05,-9.59,0.01,9.80,-9.61,-0.05,-2.21,9.86
-2.04,-9.61,0.05,9.82,-9.59,-0.06,-2.24,9.84
-2.00,-9.57,0.03,9.78,-9.59,-0.05,-2.19,9.84
-2.04,-9.57,0.03,9.79,-9.60,-0.07,-2.23,9.86
-2.05,-9.57,0.01,9.79,-9.62,-0.06,-2.21,9.87
-2.02,-9.59,0.01,9.80,-9.61,-0.08,-2.21,9.86
-2.05,-9.59,0.00,9.81,-9.59,-0.05,-2.21,9.84
-2.03,-9.57,0.01,9.78,-9.61,-0.07,-2.22,9.86
-2.03,-9.58,0.01,9.80,-9.60,-0.07,-2.23,9.86
-2.06,-9.59,-0.00,9.80,-9.60,-0.08,-2.21,9.85
-2.06,-9.60,0.01,9.81,-9.60,-0.04,-2.25,9.86
-2.06,-9.65,-0.01,9.87,-9.61,-0.06,-2.23,9.87
-2.04,-9.57,-0.00,9.78,-9.58,-0.03,-2.24,9.84
-2.04,-9.58,0.01,9.79,-9.60,-0.03,-2.22,9.85
-2.01,-9.59,0.01,9.80,-9.61,-0.03,-2.23,9.86
-2.04,-9.60,0.00,9.82,-9.58,-0.06,-2.23,9.84
-2.00,-9.63,0.01,9.83,-9.60,-0.06,-2.23,9.86
-2.02,-9.61,0.02,9.82,-9.60,-0.07,-2.22,9.85
-2.04,-9.60,0.04,9.81,-9.61,-0.09,-2.23,9.87
-2.02,-9.56,0.07,9.77,-9.60,-0.07,-2.22,9.86
-2.02,-9.57,0.03,9.79,-9.61,-0.03,-2.20,9.86
-2.06,-9.59,0.00,9.81,-9.59,-0.06,-2.20,9.84
-2.04,-9.59,-0.01,9.80,-9.62,-0.04,-2.24,9.87
-2.01,-9.60,-0.00,9.81,-9.58,-0.04,-2.22,9.84
-2.03,-9.59,0.02,9.80,-9.61,-0.08,-2.21,9.86
-2.00,-9.59,-0.00,9.79,-9.60,-0.06,-2.21,9.86
-2.07,-9.58,0.01,9.80,-9.60,-0.03,-2.29,9.87
-2.12,-9.63,0.18,9.87,-9.62,-0.03,-2.28,9.89
-2.07,-9.54,0.11,9.77,-9.58,-0.04,-2.12,9.81
-2.01,-9.51,-0.04,9.72,-9.61,-0.05,-2.31,9.88
-1.99,-9.59,-0.08,9.79,-9.61,-0.06,-2.30,9.88
-2.07,-9.63,-0.06,9.85,-9.58,-0.06,-2.14,9.82
-2.03,-9.62,0.01,9.83,-9.65,-0.04,-2.30,9.92
-2.12,-9.63,0.08,9.86,-9.56,-0.08,-2.30,9.83
-2.08,-9.59,0.08,9.81,-9.58,-0.03,-2.22,9.84
-2.07,-9.53,0.01,9.75,-9.60,-0.03,-2.18,9.84
-2.09,-9.54,-0.05,9.76,-9.58,-0.04,-2.23,9.84
-2.10,-9.58,-0.03,9.81,-9.58,-0.01,-2.23,9.84
-2.06,-9.58,-0.01,9.80,-9.64,-0.00,-2.21,9.89
-2.02,-9.61,0.03,9.82,-9.66,-0.06,-2.21,9.91
-2.01,-9.62,-0.01,9.83,-9.65,-0.09,-2.23,9.90
-2.04,-9.65,0.03,9.87,-9.64,-0.06,-2.20,9.89
-2.06,-9.64,0.04,9.86,-9.63,-0.06,-2.19,9.87
-2.07,-9.59,0.05,9.81,-9.63,-0.03,-2.18,9.87
-2.06,-9.59,0.01,9.81,-9.59,-0.03,-2.17,9.83
-2.05,-9.60,0.02,9.82,-9.60,-0.06,-2.17,9.84
-2.05,-9.56,0.02,9.78,-9.62,-0.04,-2.15,9.86
-2.03,-9.57,0.02,9.79,-9.60,-0.07,-2.15,9.84
-2.01,-9.58,0.01,9.79,-9.55,-0.06,-2.17,9.80
-2.00,-9.55,0.03,9.76,-9.57,-0.05,-2.20,9.82
-2.00,-9.58,0.03,9.79,-9.58,-0.05,-2.21,9.83
-2.04,-9.58,0.02,9.80,-9.56,-0.06,-2.23,9.82
-2.08,-9.58,0.00,9.81,-9.61,-0.06,-2.25,9.87
-2.06,-9.59,-0.02,9.80,-9.61,-0.05,-2.22,9.87
-2.05,-9.59,-0.01,9.81,-9.63,-0.03,-2.21,9.88
-1.98,-9.79,0.04,9.98,-9.66,-0.03,-2.17,9.91
-2.04,-9.62,-0.04,9.83,-9.65,-0.02,-2.18,9.90
-2.04,-9.61,-0.00,9.82,-9.66,-0.05,-2.27,9.92
-2.05,-9.66,0.03,9.88,-9.64,-0.07,-2.16,9.88
-2.04,-9.65,0.08,9.86,-9.67,-0.04,-2.22,9.92
-2.03,-9.57,0.02,9.78,-9.60,-0.08,-2.17,9.85
-2.01,-9.55,0.01,9.76,-9.59,-0.06,-2.23,9.85
-2.06,-9.57,-0.00,9.79,-9.60,-0.03,-2.19,9.85
-2.05,-9.56,0.01,9.78,-9.62,-0.02,-2.23,9.88
-2.01,-9.57,0.03,9.78,-9.58,-0.04,-2.20,9.83
-1.98,-9.59,0.00,9.79,-9.61,-0.05,-2.21,9.86
-2.02,-9.59,0.04,9.80,-9.60,-0.07,-2.20,9.84
-2.03,-9.61,0.01,9.82,-9.61,-0.03,-2.23,9.86
-2.05,-9.61,0.01,9.82,-9.62,-0.02,-2.21,9.87
-2.04,-9.60,0.00,9.82,-9.57,-0.06,-2.20,9.83
-2.04,-9.60,-0.00,9.81,-9.58,-0.06,-2.21,9.83
-2.03,-9.58,0.04,9.80,-9.63,-0.10,-2.24,9.88
-2.03,-9.59,0.03,9.80,-9.58,-0.08,-2.21,9.83
-2.02,-9.58,0.04,9.79,-9.60,-0.07,-2.22,9.86
-2.05,-9.60,0.03,9.81,-9.63,-0.08,-2.21,9.88
-2.01,-9.58,0.02,9.79,-9.60,-0.06,-2.19,9.85
-2.07,-9.60,0.02,9.82,-9.60,-0.08,-2.20,9.84
-2.03,-9.61,-0.01,9.82,-9.61,-0.08,-2.22,9.87
-2.02,-9.61,-0.01,9.82,-9.61,-0.06,-2.20,9.86
-2.03,-9.63,0.00,9.85,-9.63,-0.04,-2.19,9.88
-2.01,-9.60,0.03,9.80,-9.63,-0.04,-2.22,9.88
-2.03,-9.59,0.03,9.81,-9.65,-0.09,-2.23,9.90
-2.05,-9.61,0.01,9.83,-9.63,-0.05,-2.20,9.87
-2.02,-9.62,0.04,9.83,-9.58,-0.03,-2.20,9.83
-2.03,-9.61,0.06,9.82,-9.58,-0.07,-2.20,9.83
-2.02,-9.60,0.03,9.81,-9.60,-0.08,-2.16,9.84
-2.03,-9.61,0.05,9.82,-9.60,-0.06,-2.20,9.84
-2.03,-9.59,0.04,9.80,-9.59,-0.09,-2.17,9.84
-2.04,-9.61,0.06,9.83,-9.60,-0.07,-2.20,9.85
-2.04,-9.60,0.04,9.82,-9.62,-0.06,-2.21,9.87
-2.03,-9.60,0.02,9.82,-9.61,-0.04,-2.24,9.86
-2.04,-9.62,0.02,9.83,-9.61,-0.03,-2.26,9.87
-2.05,-9.61,0.01,9.82,-9.62,-0.02,-2.25,9.88
-2.06,-9.61,0.06,9.83,-9.59,-0.04,-2.22,9.84
-2.04,-9.57,0.04,9.79,-9.61,-0.04,-2.23,9.86
-2.04,-9.57,0.06,9.79,-9.62,-0.06,-2.22,9.87
-2.05,-9.61,0.04,9.82,-9.58,-0.03,-2.24,9.84
-2.03,-9.59,0.06,9.81,-9.60,-0.06,-2.23,9.86
-2.05,-9.63,0.06,9.84,-9.63,-0.07,-2.24,9.88
-2.04,-9.62,0.06,9.83,-9.65,-0.07,-2.25,9.91
-2.03,-9.61,0.10,9.82,-9.64,-0.07,-2.26,9.90
-2.04,-9.59,0.07,9.80,-9.57,-0.07,-2.26,9.84
-2.05,-9.57,0.07,9.79,-9.62,-0.06,-2.23,9.87
-2.04,-9.59,0.09,9.81,-9.61,-0.05,-2.27,9.87
-2.06,-9.57,0.02,9.79,-9.61,-0.06,-2.25,9.87
-2.04,-9.59,0.09,9.80,-9.60,-0.07,-2.26,9.86
-2.03,-9.61,0.08,9.82,-9.61,-0.10,-2.26,9.88
-2.06,-9.60,0.10,9.82,-9.58,-0.08,-2.24,9.84
-2.03,-9.56,0.08,9.78,-9.61,-0.07,-2.24,9.86
-2.07,-9.64,0.14,9.86,-9.60,-0.04,-2.25,9.86
-2.01,-9.58,0.11,9.79,-9.57,-0.05,-2.23,9.83
-2.02,-9.56,0.09,9.77,-9.60,-0.05,-2.24,9.86
-2.02,-9.53,0.13,9.75,-9.56,-0.04,-2.24,9.82
-2.07,-9.69,0.22,9.91,-9.58,-0.04,-2.21,9.83
-2.03,-9.57,0.12,9.78,-9.61,-0.06,-2.24,9.86
-2.07,-9.62,0.13,9.84,-9.61,0.01,-2.28,9.88
-2.13,-9.63,0.27,9.87,-9.62,-0.05,-2.27,9.89
-2.07,-9.61,0.22,9.83,-9.56,-0.02,-2.15,9.80
-2.04,-9.49,0.08,9.70,-9.63,-0.06,-2.39,9.92
-2.05,-9.66,0.10,9.87,-9.60,-0.08,-2.19,9.84
-2.04,-9.64,0.13,9.86,-9.59,-0.07,-2.18,9.84
-2.03,-9.57,0.21,9.78,-9.62,-0.05,-2.39,9.91
-2.12,-9.63,0.29,9.86,-9.52,-0.09,-2.34,9.81
-2.09,-9.53,0.25,9.76,-9.61,-0.07,-2.28,9.88
-2.05,-9.51,0.12,9.73,-9.59,-0.03,-2.20,9.84
-2.06,-9.57,0.08,9.79,-9.61,0.01,-2.25,9.87
-2.10,-9.63,0.15,9.85,-9.61,-0.02,-2.24,9.87
-2.08,-9.64,0.20,9.87,-9.69,-0.03,-2.24,9.95
-2.02,-9.64,0.20,9.85,-9.69,-0.05,-2.28,9.95
-2.01,-9.66,0.22,9.87,-9.65,-0.05,-2.21,9.90
-2.04,-9.66,0.31,9.88,-9.64,-0.07,-2.27,9.91
-2.05,-9.57,0.25,9.79,-9.59,-0.03,-2.25,9.85
-2.06,-9.57,0.26,9.79,-9.58,-0.03,-2.25,9.84
-2.06,-9.51,0.19,9.74,-9.55,-0.02,-2.26,9.82
-2.16,-9.74,0.64,10.00,-9.61,-0.05,-2.24,9.87
-1.97,-9.46,0.03,9.66,-9.57,-0.04,-2.21,9.82
-2.02,-9.56,0.29,9.77,-9.55,-0.09,-2.25,9.81
-2.03,-9.58,0.33,9.80,-9.61,-0.04,-2.28,9.87
-1.99,-9.58,0.26,9.79,-9.61,-0.04,-2.22,9.86
-2.04,-9.61,0.25,9.83,-9.59,-0.06,-2.28,9.85
-2.03,-9.62,0.27,9.84,-9.60,-0.05,-2.26,9.86
-2.04,-9.58,0.22,9.79,-9.59,-0.04,-2.31,9.87
-2.05,-9.58,0.20,9.80,-9.59,-0.08,-2.26,9.85
-2.04,-9.50,0.13,9.72,-9.62,-0.03,-2.27,9.88
-2.02,-9.69,0.30,9.91,-9.65,-0.04,-2.19,9.90
-2.02,-9.57,0.22,9.79,-9.67,-0.02,-2.38,9.96
-2.07,-9.66,0.28,9.88,-9.61,-0.10,-2.32,9.88
-2.03,-9.57,0.12,9.79,-9.66,-0.04,-2.28,9.93
-2.04,-9.59,0.24,9.81,-9.55,-0.05,-2.28,9.82
-2.06,-9.56,0.24,9.78,-9.57,-0.06,-2.32,9.85
-2.04,-9.43,0.19,9.65,-9.57,-0.06,-2.29,9.84
-2.06,-9.59,0.20,9.81,-9.56,-0.04,-2.28,9.83
-2.04,-9.66,0.30,9.87,-9.60,-0.07,-2.26,9.86
-1.98,-9.57,0.08,9.77,-9.63,-0.06,-2.28,9.90
-1.99,-9.58,0.16,9.79,-9.57,-0.06,-2.30,9.84
-2.06,-9.60,0.27,9.82,-9.59,-0.06,-2.30,9.86
-2.04,-9.58,0.21,9.80,-9.58,-0.07,-2.30,9.85
-2.07,-9.60,0.22,9.82,-9.58,-0.07,-2.34,9.86
-2.06,-9.61,0.22,9.83,-9.56,-0.06,-2.27,9.83
-2.06,-9.57,0.19,9.80,-9.55,-0.06,-2.31,9.82
-2.06,-9.57,0.21,9.79,-9.58,-0.05,-2.32,9.86
-2.08,-9.59,0.31,9.82,-9.59,-0.06,-2.32,9.87
-2.01,-9.58,0.10,9.79,-9.57,-0.07,-2.28,9.84
-2.05,-9.59,0.23,9.81,-9.55,-0.09,-2.29,9.82
-2.07,-9.59,0.24,9.82,-9.61,-0.08,-2.31,9.88
-2.07,-9.62,0.23,9.84,-9.60,-0.08,-2.29,9.87
-2.07,-9.60,0.26,9.82,-9.60,-0.07,-2.31,9.88
-2.04,-9.59,0.25,9.81,-9.59,-0.06,-2.31,9.86
-2.05,-9.59,0.26,9.81,-9.57,-0.06,-2.34,9.85
-2.05,-9.60,0.21,9.82,-9.58,-0.09,-2.32,9.85
-2.05,-9.62,0.33,9.84,-9.57,-0.07,-2.32,9.85
-2.01,-9.58,0.36,9.79,-9.57,-0.05,-2.30,9.84
-2.04,-9.58,0.25,9.80,-9.59,-0.09,-2.35,9.87
-2.05,-9.60,0.22,9.82,-9.60,-0.08,-2.36,9.88
-1.99,-9.62,0.23,9.83,-9.58,-0.07,-2.29,9.85
-2.05,-9.60,0.24,9.81,-9.57,-0.08,-2.31,9.84
-2.02,-9.58,0.24,9.80,-9.58,-0.08,-2.31,9.85
-2.04,-9.59,0.27,9.81,-9.59,-0.08,-2.33,9.87
-2.05,-9.60,0.24,9.82,-9.62,-0.04,-2.33,9.90
-2.06,-9.60,0.27,9.82,-9.55,-0.07,-2.32,9.83
-2.05,-9.59,0.26,9.81,-9.55,-0.09,-2.34,9.84
-2.05,-9.58,0.13,9.80,-9.60,-0.08,-2.32,9.88
-2.02,-9.57,0.22,9.78,-9.56,-0.06,-2.37,9.85
-2.05,-9.56,0.22,9.78,-9.56,-0.08,-2.31,9.84
-2.07,-9.59,0.21,9.81,-9.54,-0.06,-2.32,9.82
-2.07,-9.59,0.24,9.81,-9.58,-0.08,-2.34,9.86
-2.05,-9.60,0.22,9.82,-9.56,-0.06,-2.34,9.84
-2.08,-9.59,0.24,9.82,-9.56,-0.09,-2.35,9.84
-2.05,-9.58,0.24,9.80,-9.56,-0.05,-2.32,9.84
-2.07,-9.59,0.25,9.82,-9.59,-0.06,-2.33,9.87
-2.05,-9.58,0.27,9.80,-9.57,-0.06,-2.34,9.85
-2.07,-9.59,0.24,9.81,-9.56,-0.07,-2.35,9.84
-2.05,-9.57,0.31,9.79,-9.56,-0.08,-2.34,9.85
-2.06,-9.59,0.24,9.81,-9.56,-0.09,-2.32,9.83
-2.02,-9.57,0.23,9.78,-9.57,-0.09,-2.31,9.85
-2.09,-9.60,0.27,9.83,-9.59,-0.08,-2.36,9.88
-2.10,-9.62,0.27,9.85,-9.58,-0.08,-2.32,9.86
-2.07,-9.59,0.40,9.82,-9.55,-0.07,-2.26,9.81
-2.07,-9.56,0.30,9.78,-9.57,-0.08,-2.26,9.84
-2.01,-9.53,0.21,9.74,-9.57,-0.04,-2.32,9.85
-1.99,-9.55,0.15,9.76,-9.59,-0.09,-2.30,9.86
-1.99,-9.62,0.25,9.83,-9.62,-0.10,-2.31,9.90
-2.00,-9.59,0.24,9.80,-9.56,-0.10,-2.41,9.86
-2.10,-9.57,0.31,9.80,-9.50,-0.05,-2.29,9.78
-2.14,-9.54,0.26,9.78,-9.55,-0.00,-2.27,9.82
-2.11,-9.54,0.21,9.77,-9.57,-0.03,-2.30,9.85
-2.11,-9.57,0.15,9.80,-9.62,-0.01,-2.29,9.89
-2.07,-9.68,0.22,9.90,-9.67,-0.03,-2.31,9.94
-2.01,-9.68,0.24,9.88,-9.66,-0.06,-2.27,9.92
-2.00,-9.66,0.23,9.87,-9.66,-0.06,-2.31,9.93
-2.01,-9.66,0.21,9.87,-9.62,-0.07,-2.29,9.89
-2.05,-9.64,0.25,9.86,-9.59,-0.06,-2.28,9.86
-2.10,-9.58,0.25,9.81,-9.57,-0.04,-2.30,9.84
-2.11,-9.56,0.26,9.79,-9.55,-0.04,-2.31,9.82
-2.07,-9.53,0.22,9.75,-9.53,-0.06,-2.30,9.80
-2.04,-9.55,0.22,9.77,-9.54,-0.06,-2.29,9.81
-2.02,-9.57,0.20,9.78,-9.57,-0.08,-2.30,9.84
-2.01,-9.51,0.24,9.73,-9.57,-0.03,-2.28,9.83
-1.98,-9.57,0.14,9.78,-9.58,-0.06,-2.24,9.84
-2.01,-9.60,0.15,9.81,-9.58,-0.08,-2.30,9.86
-2.05,-9.64,0.20,9.86,-9.59,-0.06,-2.32,9.86
-2.07,-9.62,0.25,9.84,-9.61,-0.05,-2.31,9.88
-2.08,-9.60,0.20,9.82,-9.60,-0.03,-2.32,9.88
-2.02,-9.60,0.18,9.81,-9.60,-0.07,-2.26,9.86
-2.04,-9.62,0.16,9.84,-9.62,-0.07,-2.23,9.88
-2.07,-9.63,0.25,9.85,-9.62,-0.05,-2.43,9.92
-2.05,-9.64,0.28,9.86,-9.58,-0.12,-2.22,9.83
-2.05,-9.56,0.23,9.78,-9.62,-0.08,-2.27,9.88
-2.06,-9.59,0.20,9.81,-9.58,-0.07,-2.26,9.84
-2.06,-9.60,0.29,9.82,-9.56,-0.05,-2.31,9.84
-2.07,-9.59,0.26,9.81,-9.57,-0.05,-2.31,9.85
-2.06,-9.56,0.17,9.78,-9.60,-0.08,-2.28,9.86
-2.04,-9.60,0.15,9.82,-9.58,-0.08,-2.27,9.85
-2.06,-9.62,0.17,9.84,-9.59,-0.06,-2.30,9.86
-2.04,-9.57,0.17,9.79,-9.61,-0.07,-2.33,9.89
-2.05,-9.57,0.18,9.79,-9.58,-0.06,-2.31,9.85
-2.03,-9.58,0.19,9.80,-9.56,-0.07,-2.34,9.85
-2.05,-9.60,0.21,9.82,-9.58,-0.06,-2.29,9.85
-2.07,-9.58,0.23,9.81,-9.57,-0.06,-2.32,9.85
-2.05,-9.58,0.24,9.80,-9.57,-0.09,-2.33,9.85
-2.05,-9.58,0.18,9.80,-9.57,-0.08,-2.28,9.84
-2.04,-9.61,0.19,9.82,-9.57,-0.05,-2.29,9.85
-2.01,-9.59,0.19,9.80,-9.58,-0.08,-2.27,9.85
-2.06,-9.59,0.19,9.81,-9.62,-0.08,-2.30,9.89
-2.04,-9.59,0.13,9.81,-9.63,-0.08,-2.29,9.89
-2.09,-9.62,0.23,9.85,-9.62,-0.10,-2.34,9.90
-2.07,-9.61,0.20,9.83,-9.61,-0.07,-2.31,9.88
-2.07,-9.61,0.13,9.83,-9.59,-0.05,-2.30,9.87
-2.05,-9.59,0.16,9.81,-9.58,-0.05,-2.30,9.85
-2.06,-9.59,0.16,9.81,-9.59,-0.06,-2.30,9.86
-2.03,-9.59,0.19,9.81,-9.57,-0.08,-2.31,9.84
-2.03,-9.59,0.19,9.80,-9.56,-0.05,-2.29,9.84
-2.04,-9.57,0.18,9.79,-9.57,-0.06,-2.32,9.85
-2.03,-9.58,0.17,9.79,-9.57,-0.06,-2.30,9.84
-2.06,-9.58,0.16,9.80,-9.57,-0.06,-2.29,9.84
-2.09,-9.59,0.18,9.82,-9.58,-0.08,-2.30,9.85
-2.06,-9.59,0.17,9.81,-9.59,-0.08,-2.29,9.86
-2.07,-9.59,0.15,9.81,-9.61,-0.04,-2.28,9.87
-2.07,-9.59,0.14,9.81,-9.60,-0.05,-2.34,9.88
-2.04,-9.60,0.16,9.82,-9.62,-0.05,-2.30,9.89
-2.04,-9.60,0.16,9.82,-9.58,-0.06,-2.31,9.86
-2.05,-9.60,0.18,9.82,-9.56,-0.07,-2.27,9.83
-2.07,-9.59,0.18,9.82,-9.59,-0.06,-2.29,9.86
-2.04,-9.58,0.15,9.79,-9.60,-0.04,-2.29,9.87
-2.03,-9.61,0.17,9.82,-9.57,-0.06,-2.32,9.85
-2.06,-9.55,0.20,9.77,-9.55,-0.03,-2.30,9.83
-2.06,-9.65,0.46,9.88,-9.60,-0.06,-2.30,9.87
-2.06,-9.61,0.13,9.83,-9.62,-0.08,-2.30,9.89
-2.06,-9.62,0.16,9.84,-9.57,-0.07,-2.31,9.85
-2.03,-9.57,0.13,9.78,-9.61,-0.07,-2.30,9.88
-2.05,-9.61,0.14,9.83,-9.57,-0.07,-2.30,9.84
-2.14,-9.62,0.20,9.86,-9.62,-0.03,-2.38,9.91
-2.06,-9.60,0.31,9.83,-9.53,-0.08,-2.25,9.79
-2.06,-9.54,0.22,9.76,-9.54,-0.04,-2.27,9.81
-1.98,-9.46,0.09,9.66,-9.60,-0.05,-2.38,9.89
-2.03,-9.66,0.15,9.87,-9.58,-0.09,-2.28,9.84
-2.02,-9.61,0.16,9.82,-9.62,-0.07,-2.25,9.88
-2.02,-9.64,0.27,9.85,-9.61,-0.06,-2.39,9.90
-2.16,-9.61,0.24,9.85,-9.52,-0.05,-2.27,9.78
-2.08,-9.51,0.22,9.74,-9.56,-0.04,-2.25,9.82
-2.09,-9.52,0.10,9.75,-9.60,0.00,-2.25,9.86
-2.09,-9.55,0.08,9.78,-9.61,-0.02,-2.24,9.87
-2.09,-9.63,0.11,9.85,-9.62,-0.03,-2.24,9.88
-2.09,-9.64,0.21,9.86,-9.66,-0.04,-2.31,9.93
-2.01,-9.65,0.12,9.86,-9.65,-0.07,-2.24,9.91
-2.02,-9.64,0.19,9.85,-9.63,-0.09,-2.24,9.89
-2.05,-9.64,0.21,9.86,-9.63,-0.07,-2.27,9.89
-2.05,-9.60,0.17,9.82,-9.59,-0.06,-2.26,9.85
-2.05,-9.55,0.23,9.77,-9.56,-0.06,-2.25,9.82
-2.10,-9.55,0.20,9.78,-9.55,-0.06,-2.29,9.82
-2.07,-9.58,0.17,9.80,-9.55,-0.05,-2.25,9.81
-2.06,-9.59,0.20,9.81,-9.59,-0.06,-2.27,9.86
-2.05,-9.60,0.18,9.82,-9.59,-0.04,-2.26,9.85
-2.02,-9.53,0.08,9.74,-9.59,-0.06,-2.20,9.84
-2.01,-9.58,0.15,9.79,-9.60,-0.06,-2.27,9.86
-2.02,-9.54,0.12,9.75,-9.63,-0.08,-2.26,9.89
-2.06,-9.60,0.16,9.82,-9.58,-0.06,-2.26,9.84
-2.08,-9.62,0.18,9.85,-9.58,-0.06,-2.30,9.85
-2.09,-9.65,0.14,9.87,-9.58,-0.06,-2.25,9.84
-2.05,-9.64,0.12,9.86,-9.62,-0.06,-2.22,9.88
-2.03,-9.63,0.16,9.84,-9.59,-0.06,-2.18,9.84
-2.04,-9.56,0.07,9.77,-9.64,-0.04,-2.32,9.92
-2.07,-9.63,0.26,9.86,-9.59,-0.08,-2.18,9.83
-2.04,-9.58,0.19,9.80,-9.64,-0.05,-2.24,9.89
-2.09,-9.59,0.25,9.81,-9.61,-0.11,-2.23,9.86
-2.04,-9.59,0.18,9.81,-9.58,-0.08,-2.25,9.84
-2.09,-9.55,0.11,9.78,-9.58,-0.06,-2.25,9.84
-2.06,-9.60,0.06,9.82,-9.61,-0.02,-2.26,9.87
-2.04,-9.62,0.07,9.84,-9.64,-0.03,-2.22,9.89
-1.99,-9.59,0.08,9.80,-9.61,-0.08,-2.25,9.87
-1.98,-9.60,0.07,9.80,-9.64,-0.08,-2.25,9.90
-2.03,-9.59,0.08,9.80,-9.60,-0.06,-2.26,9.86
-2.04,-9.62,0.13,9.84,-9.60,-0.07,-2.28,9.86
-2.08,-9.61,0.16,9.83,-9.58,-0.06,-2.28,9.85
-2.06,-9.59,0.18,9.81,-9.57,-0.07,-2.29,9.84
-2.09,-9.60,0.19,9.83,-9.58,-0.07,-2.30,9.85
-2.05,-9.58,0.17,9.80,-9.60,-0.06,-2.25,9.86
-2.01,-9.57,0.17,9.78,-9.59,-0.09,-2.26,9.85
-2.00,-9.57,0.14,9.78,-9.61,-0.09,-2.22,9.86
-2.01,-9.59,0.17,9.80,-9.60,-0.05,-2.24,9.86
-2.06,-9.61,0.18,9.83,-9.61,-0.07,-2.24,9.87
-2.05,-9.61,0.15,9.82,-9.61,-0.07,-2.23,9.86
-2.06,-9.63,0.20,9.84,-9.60,-0.06,-2.25,9.86
-2.06,-9.59,0.20,9.81,-9.61,-0.05,-2.23,9.87
-2.06,-9.57,0.14,9.79,-9.59,-0.04,-2.24,9.84
-2.04,-9.59,0.20,9.80,-9.60,-0.07,-2.28,9.87
-2.05,-9.55,0.14,9.77,-9.58,-0.06,-2.26,9.85
-2.05,-9.55,0.17,9.77,-9.57,-0.05,-2.25,9.83
-2.06,-9.57,0.14,9.79,-9.58,-0.06,-2.25,9.84
-2.08,-9.59,0.14,9.81,-9.59,-0.08,-2.25,9.85
-2.07,-9.58,0.16,9.80,-9.58,-0.07,-2.21,9.84
-2.05,-9.57,0.11,9.78,-9.57,-0.05,-2.24,9.83
-2.05,-9.58,0.20,9.79,-9.60,-0.05,-2.23,9.86
-2.03,-9.59,0.16,9.80,-9.59,-0.07,-2.24,9.85
-2.07,-9.61,0.14,9.83,-9.62,-0.07,-2.24,9.88
-2.05,-9.56,0.11,9.78,-9.61,-0.05,-2.26,9.87
-2.07,-9.58,0.15,9.80,-9.59,-0.06,-2.25,9.85
-2.06,-9.58,0.08,9.80,-9.60,-0.04,-2.25,9.86
-2.06,-9.63,0.07,9.85,-9.61,-0.04,-2.23,9.87
-2.07,-9.65,0.15,9.87,-9.62,-0.07,-2.24,9.87
-2.07,-9.60,0.05,9.82,-9.62,-0.07,-2.25,9.88
-2.08,-9.69,0.12,9.91,-9.65,-0.07,-2.24,9.91
-2.06,-9.55,0.06,9.77,-9.57,-0.06,-2.22,9.83
-2.05,-9.43,0.14,9.65,-9.59,-0.09,-2.26,9.85
-2.08,-9.58,0.13,9.81,-9.56,-0.08,-2.26,9.83
-2.07,-9.59,0.10,9.81,-9.59,-0.06,-2.28,9.86
-2.07,-9.63,0.09,9.85,-9.60,-0.02,-2.25,9.86
-2.01,-9.54,0.03,9.75,-9.58,-0.06,-2.25,9.84
-2.03,-9.54,0.10,9.75,-9.56,-0.05,-2.28,9.83
-2.10,-9.65,0.14,9.88,-9.59,-0.03,-2.30,9.86
-2.09,-9.63,0.23,9.86,-9.59,-0.06,-2.24,9.85
-2.02,-9.47,0.08,9.69,-9.57,-0.06,-2.20,9.82
-2.01,-9.48,-0.01,9.69,-9.64,-0.06,-2.37,9.93
-2.03,-9.67,0.08,9.89,-9.61,-0.07,-2.18,9.86
-2.01,-9.68,0.13,9.89,-9.65,-0.03,-2.24,9.91
-2.10,-9.67,0.12,9.89,-9.64,-0.06,-2.37,9.93
-2.11,-9.61,0.17,9.84,-9.57,-0.06,-2.29,9.84
-2.09,-9.55,0.13,9.77,-9.58,-0.04,-2.21,9.84
-2.08,-9.53,0.09,9.75,-9.59,-0.06,-2.22,9.84
-2.12,-9.54,0.08,9.77,-9.59,-0.04,-2.29,9.86
-2.13,-9.57,0.06,9.80,-9.59,-0.01,-2.22,9.85
-2.09,-9.59,0.09,9.82,-9.64,-0.05,-2.25,9.90
-2.04,-9.54,0.04,9.76,-9.66,-0.05,-2.25,9.92
-2.01,-9.62,0.02,9.83,-9.65,-0.07,-2.20,9.90
-2.02,-9.63,0.10,9.84,-9.63,-0.09,-2.19,9.87
-2.05,-9.61,0.07,9.83,-9.61,-0.02,-2.19,9.85
-2.04,-9.61,0.08,9.83,-9.62,-0.03,-2.21,9.87
-2.07,-9.57,0.05,9.79,-9.60,-0.06,-2.19,9.85
-2.07,-9.57,0.10,9.80,-9.59,-0.05,-2.17,9.83
-2.07,-9.54,0.07,9.76,-9.58,-0.01,-2.21,9.83
-2.08,-9.56,0.07,9.78,-9.60,-0.04,-2.20,9.85
-2.01,-9.55,0.10,9.76,-9.61,-0.03,-2.20,9.86
-2.06,-9.54,0.10,9.76,-9.57,-0.03,-2.19,9.81
-2.04,-9.58,0.08,9.80,-9.57,-0.04,-2.20,9.82
-2.06,-9.58,0.06,9.80,-9.58,-0.02,-2.20,9.83
-2.07,-9.54,0.00,9.76,-9.61,-0.02,-2.22,9.86
-2.07,-9.55,-0.09,9.77,-9.60,-0.02,-2.21,9.85
-2.10,-9.66,0.06,9.88,-9.63,-0.01,-2.21,9.88
-2.06,-9.62,0.06,9.84,-9.66,-0.03,-2.22,9.91
-2.06,-9.60,-0.01,9.82,-9.62,-0.02,-2.15,9.85
-2.11,-9.62,0.08,9.85,-9.63,0.01,-2.26,9.90
-2.09,-9.65,0.12,9.87,-9.62,-0.06,-2.17,9.86
-2.06,-9.62,0.14,9.84,-9.63,-0.08,-2.21,9.88
-2.07,-9.59,0.06,9.81,-9.58,-0.08,-2.18,9.83
-2.09,-9.58,0.05,9.80,-9.56,-0.09,-2.23,9.82
-2.08,-9.60,0.05,9.82,-9.58,-0.05,-2.24,9.84
-2.04,-9.56,0.02,9.78,-9.59,-0.04,-2.21,9.84
-2.01,-9.56,0.04,9.77,-9.63,-0.07,-2.20,9.88
-2.03,-9.58,0.02,9.79,-9.61,-0.06,-2.22,9.86
-2.04,-9.61,0.03,9.83,-9.61,-0.01,-2.21,9.86
-2.03,-9.63,0.00,9.84,-9.58,-0.04,-2.19,9.83
-2.06,-9.63,-0.00,9.85,-9.62,-0.04,-2.22,9.87
-2.08,-9.62,0.03,9.85,-9.60,-0.06,-2.20,9.85
-2.08,-9.60,0.06,9.82,-9.60,-0.04,-2.22,9.85
-2.07,-9.59,0.08,9.81,-9.59,-0.07,-2.23,9.84
-2.04,-9.59,0.06,9.80,-9.60,-0.08,-2.20,9.85
-2.05,-9.58,0.07,9.80,-9.62,-0.05,-2.21,9.87
-2.03,-9.60,0.05,9.81,-9.61,-0.05,-2.19,9.85
-2.09,-9.60,0.02,9.82,-9.61,-0.05,-2.20,9.86
-2.06,-9.59,0.03,9.81,-9.63,-0.07,-2.20,9.88
-2.05,-9.61,0.03,9.83,-9.61,-0.07,-2.21,9.86
-2.05,-9.63,0.02,9.84,-9.63,-0.05,-2.22,9.88
-2.07,-9.61,0.07,9.83,-9.63,-0.03,-2.22,9.88
-2.04,-9.60,0.04,9.81,-9.60,-0.04,-2.23,9.85
-2.08,-9.59,0.05,9.82,-9.61,-0.03,-2.23,9.86
-2.05,-9.56,0.06,9.77,-9.60,-0.04,-2.22,9.85
-2.05,-9.59,0.04,9.80,-9.59,-0.04,-2.22,9.84
-2.04,-9.58,0.04,9.80,-9.59,-0.06,-2.23,9.84
-2.07,-9.56,0.06,9.78,-9.60,-0.05,-2.20,9.85
-2.06,-9.58,0.01,9.80,-9.61,-0.05,-2.23,9.87
-2.05,-9.60,0.06,9.82,-9.61,-0.06,-2.21,9.86
-2.07,-9.60,0.04,9.82,-9.60,-0.07,-2.19,9.85
-2.07,-9.60,0.05,9.83,-9.60,-0.06,-2.22,9.85
-2.06,-9.60,0.04,9.82,-9.60,-0.04,-2.21,9.86
-2.05,-9.59,0.05,9.81,-9.60,-0.06,-2.22,9.85
-2.03,-9.60,0.06,9.82,-9.59,-0.06,-2.22,9.84
-2.01,-9.56,0.05,9.77,-9.62,-0.00,-2.25,9.88
-2.09,-9.59,0.04,9.82,-9.58,-0.04,-2.23,9.83
-2.07,-9.60,0.01,9.82,-9.58,-0.06,-2.23,9.83
-2.04,-9.60,0.04,9.81,-9.59,-0.05,-2.22,9.84
-2.05,-9.59,0.05,9.81,-9.60,-0.05,-2.21,9.85
-2.06,-9.61,0.04,9.83,-9.60,-0.04,-2.25,9.86
-2.04,-9.61,0.00,9.82,-9.61,-0.07,-2.21,9.87
-2.06,-9.58,0.01,9.80,-9.60,-0.05,-2.22,9.86
-2.06,-9.59,0.04,9.81,-9.59,-0.07,-2.21,9.84
-2.04,-9.59,0.02,9.81,-9.59,-0.05,-2.21,9.84
-2.06,-9.59,0.06,9.81,-9.59,-0.05,-2.23,9.85
-2.05,-9.62,0.05,9.83,-9.61,-0.06,-2.20,9.85
-2.04,-9.58,0.06,9.80,-9.58,-0.05,-2.20,9.83
-2.04,-9.59,0.07,9.80,-9.60,-0.05,-2.25,9.86
-2.05,-9.57,-0.01,9.79,-9.61,-0.06,-2.25,9.87
-2.04,-9.60,0.02,9.81,-9.60,-0.05,-2.20,9.85
-2.03,-9.58,0.03,9.79,-9.60,-0.04,-2.18,9.84
-2.01,-9.61,0.02,9.81,-9.61,-0.03,-2.25,9.87
-2.14,-9.66,0.06,9.90,-9.64,-0.05,-2.28,9.91
-2.13,-9.64,0.17,9.88,-9.61,-0.03,-2.19,9.86
-2.01,-9.48,-0.01,9.69,-9.56,-0.05,-2.14,9.80
-1.99,-9.51,-0.11,9.72,-9.65,-0.07,-2.31,9.92
-2.02,-9.69,-0.04,9.90,-9.55,-0.07,-2.09,9.78
-2.02,-9.61,-0.05,9.82,-9.60,-0.05,-2.24,9.86
-2.09,-9.62,0.10,9.85,-9.59,-0.06,-2.30,9.86
-2.07,-9.60,0.11,9.82,-9.59,-0.07,-2.27,9.86
-2.07,-9.52,0.07,9.74,-9.58,-0.05,-2.21,9.83
-2.08,-9.55,-0.06,9.77,-9.59,-0.03,-2.23,9.85
-2.09,-9.52,-0.05,9.75,-9.60,-0.03,-2.24,9.86
-2.08,-9.57,-0.05,9.80,-9.60,-0.01,-2.21,9.85
-2.05,-9.61,-0.02,9.82,-9.67,-0.05,-2.22,9.92
-2.01,-9.64,0.00,9.85,-9.68,-0.03,-2.23,9.94
-2.03,-9.66,0.03,9.87,-9.66,-0.06,-2.19,9.91
-2.05,-9.64,0.06,9.85,-9.64,-0.03,-2.22,9.90
-2.07,-9.61,0.04,9.83,-9.61,-0.03,-2.20,9.86
-2.07,-9.58,0.07,9.80,-9.60,-0.03,-2.16,9.84
-2.07,-9.57,0.04,9.79,-9.58,-0.03,-2.20,9.83
-2.03,-9.56,0.03,9.77,-9.60,-0.05,-2.20,9.85
-2.03,-9.56,0.02,9.78,-9.59,-0.03,-2.17,9.83
-2.01,-9.57,0.02,9.78,-9.58,-0.05,-2.17,9.82
-2.05,-9.57,0.02,9.79,-9.59,-0.07,-2.18,9.84
-2.07,-9.58,0.00,9.80,-9.58,-0.06,-2.20,9.83
-2.05,-9.57,0.02,9.79,-9.59,-0.07,-2.20,9.84
-2.05,-9.57,-0.03,9.79,-9.61,-0.05,-2.23,9.87
-2.04,-9.60,-0.01,9.81,-9.59,-0.01,-2.19,9.84
-2.06,-9.58,0.00,9.80,-9.60,-0.04,-2.22,9.86
-2.08,-9.62,0.02,9.85,-9.62,-0.04,-2.20,9.87
-2.04,-9.62,0.02,9.84,-9.63,-0.03,-2.19,9.87
-2.08,-9.59,-0.04,9.81,-9.66,-0.02,-2.16,9.90
-2.09,-9.64,0.05,9.86,-9.63,-0.03,-2.26,9.89
-2.06,-9.61,0.08,9.83,-9.65,-0.04,-2.19,9.89
-2.03,-9.57,0.04,9.79,-9.59,-0.05,-2.20,9.84
-2.04,-9.58,-0.00,9.79,-9.61,-0.06,-2.22,9.86
-2.08,-9.59,0.02,9.81,-9.58,-0.04,-2.21,9.83
-2.09,-9.57,0.02,9.80,-9.61,0.02,-2.22,9.86
-2.04,-9.56,0.00,9.78,-9.60,-0.02,-2.23,9.86
-2.03,-9.57,-0.01,9.79,-9.58,-0.06,-2.20,9.83
-2.00,-9.58,0.01,9.79,-9.63,-0.02,-2.18,9.88
-2.04,-9.60,0.01,9.81,-9.60,-0.05,-2.20,9.84
-2.05,-9.61,0.03,9.83,-9.60,-0.02,-2.20,9.85
-2.05,-9.61,0.01,9.82,-9.60,-0.02,-2.21,9.86
-2.05,-9.60,-0.00,9.82,-9.62,-0.05,-2.24,9.88
-2.04,-9.60,0.01,9.81,-9.64,-0.04,-2.19,9.89
-2.04,-9.58,0.03,9.80,-9.60,-0.03,-2.21,9.86
-2.06,-9.56,0.06,9.78,-9.60,-0.03,-2.19,9.85
-2.06,-9.57,0.03,9.79,-9.60,-0.06,-2.21,9.85
-2.02,-9.57,0.00,9.78,-9.61,-0.04,-2.22,9.87
-2.07,-9.59,0.01,9.81,-9.61,-0.02,-2.22,9.86
-2.04,-9.61,-0.02,9.83,-9.62,-0.04,-2.21,9.87
-2.05,-9.62,0.01,9.84,-9.61,-0.05,-2.22,9.86
-2.05,-9.60,0.02,9.81,-9.63,-0.03,-2.21,9.88
-2.06,-9.60,0.02,9.82,-9.62,-0.02,-2.19,9.87
-2.05,-9.60,0.04,9.82,-9.63,0.00,-2.23,9.89
-2.04,-9.59,0.03,9.80,-9.59,-0.05,-2.22,9.84
-2.05,-9.60,0.01,9.82,-9.59,-0.04,-2.20,9.84
-2.07,-9.58,0.03,9.80,-9.59,-0.04,-2.23,9.85
-2.06,-9.60,0.02,9.82,-9.62,-0.06,-2.20,9.87
-2.05,-9.59,0.01,9.80,-9.62,-0.04,-2.20,9.86
-2.05,-9.59,0.00,9.81,-9.59,-0.07,-2.24,9.85
-2.04,-9.60,0.03,9.81,-9.62,-0.05,-2.23,9.87
-2.04,-9.56,0.04,9.78,-9.61,-0.06,-2.23,9.87
-2.04,-9.57,0.06,9.79,-9.60,-0.07,-2.23,9.86
-2.06,-9.53,0.08,9.75,-9.60,-0.07,-2.23,9.85
-2.06,-9.58,0.03,9.80,-9.60,-0.05,-2.24,9.85
-2.08,-9.59,0.06,9.81,-9.60,-0.05,-2.24,9.86
-2.09,-9.63,0.05,9.86,-9.61,-0.06,-2.22,9.87
-2.05,-9.57,0.03,9.79,-9.60,-0.05,-2.24,9.86
-2.07,-9.63,0.03,9.85,-9.62,-0.05,-2.23,9.87
-2.02,-9.63,-0.01,9.84,-9.61,-0.05,-2.26,9.88
-2.06,-9.61,0.02,9.83,-9.63,-0.03,-2.25,9.89
-2.03,-9.59,0.06,9.80,-9.59,-0.07,-2.24,9.85
-2.07,-9.60,0.05,9.82,-9.61,-0.05,-2.24,9.87
-2.04,-9.59,0.06,9.81,-9.59,-0.06,-2.24,9.85
-2.08,-9.55,0.05,9.78,-9.60,-0.07,-2.26,9.86
-2.05,-9.56,0.06,9.77,-9.60,-0.05,-2.24,9.86
-2.07,-9.58,-0.01,9.80,-9.59,-0.04,-2.24,9.85
-2.04,-9.60,0.03,9.82,-9.63,-0.04,-2.26,9.89
-2.05,-9.59,0.05,9.80,-9.63,-0.05,-2.24,9.88
-2.02,-9.63,0.05,9.84,-9.61,-0.05,-2.27,9.88
-2.02,-9.63,0.06,9.84,-9.62,-0.02,-2.27,9.88
-2.05,-9.62,0.09,9.84,-9.61,-0.04,-2.22,9.86
-2.05,-9.57,0.10,9.79,-9.63,-0.02,-2.29,9.90
-2.05,-9.61,0.09,9.82,-9.58,-0.05,-2.28,9.85
-2.01,-9.57,0.12,9.78,-9.58,-0.01,-2.27,9.84
-2.03,-9.56,0.11,9.78,-9.56,-0.03,-2.26,9.82
-2.04,-9.59,0.12,9.81,-9.61,-0.04,-2.26,9.87
-2.15,-9.61,0.19,9.85,-9.61,0.00,-2.35,9.90
-2.08,-9.60,0.32,9.83,-9.56,-0.04,-2.21,9.81
-2.06,-9.67,0.20,9.89,-9.58,-0.05,-2.20,9.83
-2.04,-9.49,0.04,9.71,-9.63,-0.04,-2.38,9.92
-2.04,-9.67,0.10,9.88,-9.57,-0.03,-2.10,9.79
-2.02,-9.58,0.06,9.79,-9.65,-0.02,-2.24,9.90
-2.10,-9.58,0.14,9.81,-9.64,-0.03,-2.35,9.92
-2.12,-9.62,0.23,9.86,-9.60,-0.03,-2.26,9.86
-2.08,-9.51,0.17,9.74,-9.58,-0.02,-2.24,9.84
-2.08,-9.53,0.12,9.75,-9.56,-0.02,-2.23,9.81
-2.10,-9.56,0.11,9.79,-9.57,-0.03,-2.26,9.84
-2.09,-9.63,0.14,9.86,-9.59,-0.01,-2.28,9.86
-2.06,-9.64,0.16,9.86,-9.68,-0.02,-2.29,9.94
-2.05,-9.61,0.15,9.82,-9.67,-0.05,-2.28,9.93
-2.07,-9.66,0.18,9.88,-9.64,-0.06,-2.23,9.90
-2.05,-9.64,0.18,9.85,-9.64,-0.05,-2.27,9.90
-2.09,-9.60,0.17,9.83,-9.59,-0.07,-2.30,9.86
-2.12,-9.62,0.17,9.86,-9.59,-0.07,-2.24,9.84
-2.09,-9.56,0.21,9.79,-9.59,-0.06,-2.23,9.85
-2.08,-9.55,0.16,9.77,-9.58,-0.03,-2.23,9.83
-2.08,-9.71,0.21,9.94,-9.58,-0.05,-2.24,9.84
-2.08,-9.55,0.13,9.78,-9.59,-0.02,-2.22,9.84
-2.04,-9.60,0.19,9.82,-9.59,-0.03,-2.25,9.85
-2.04,-9.56,0.20,9.78,-9.59,-0.02,-2.26,9.86
-2.06,-9.60,0.25,9.82,-9.57,-0.06,-2.28,9.84
-2.05,-9.55,0.18,9.77,-9.59,-0.04,-2.29,9.86
-2.07,-9.58,0.21,9.81,-9.57,-0.01,-2.29,9.84
-2.10,-9.58,0.18,9.81,-9.62,-0.04,-2.28,9.89
-2.07,-9.62,0.20,9.84,-9.61,-0.04,-2.28,9.88
-2.07,-9.64,0.16,9.86,-9.59,-0.03,-2.20,9.84
-2.08,-9.59,0.17,9.81,-9.68,-0.02,-2.37,9.96
-2.08,-9.64,0.24,9.86,-9.58,-0.07,-2.21,9.84
-2.03,-9.59,0.19,9.81,-9.67,-0.02,-2.30,9.94
-2.04,-9.59,0.25,9.81,-9.57,-0.07,-2.24,9.82
-2.03,-9.59,0.19,9.80,-9.57,-0.05,-2.31,9.85
-2.08,-9.57,0.20,9.79,-9.58,-0.05,-2.29,9.85
-2.08,-9.62,0.26,9.84,-9.58,-0.06,-2.30,9.85
-2.04,-9.56,0.24,9.78,-9.58,-0.06,-2.32,9.86
-2.02,-9.47,0.20,9.69,-9.57,-0.06,-2.30,9.84
-2.03,-9.76,0.45,9.98,-9.60,-0.08,-2.28,9.87
-2.00,-9.57,0.09,9.78,-9.55,-0.04,-2.25,9.81
-2.00,-9.55,0.22,9.76,-9.56,-0.05,-2.33,9.84
-2.04,-9.59,0.25,9.81,-9.57,-0.05,-2.31,9.84
-2.04,-9.57,0.22,9.79,-9.58,-0.04,-2.29,9.85
-2.03,-9.56,0.24,9.78,-9.61,-0.06,-2.31,9.88
-2.04,-9.57,0.23,9.78,-9.59,-0.04,-2.31,9.87
-2.05,-9.58,0.25,9.80,-9.58,-0.03,-2.31,9.86
-2.08,-9.62,0.27,9.84,-9.61,-0.07,-2.31,9.88
-2.05,-9.63,0.14,9.85,-9.56,-0.05,-2.31,9.84
-2.07,-9.59,0.06,9.81,-9.57,-0.05,-2.30,9.84
-2.05,-9.56,0.25,9.78,-9.58,-0.06,-2.33,9.86
-2.06,-9.60,0.26,9.82,-9.58,-0.04,-2.28,9.85
-2.05,-9.55,0.22,9.77,-9.55,-0.05,-2.30,9.82
-2.08,-9.57,0.22,9.80,-9.57,-0.05,-2.32,9.85
-2.05,-9.57,0.26,9.79,-9.57,-0.08,-2.32,9.84
-2.06,-9.58,0.28,9.80,-9.56,-0.07,-2.31,9.83
-2.08,-9.59,0.29,9.81,-9.57,-0.06,-2.29,9.84
-2.04,-9.59,0.29,9.80,-9.55,-0.07,-2.28,9.82
-2.06,-9.56,0.25,9.78,-9.55,-0.07,-2.30,9.82
-2.04,-9.53,0.27,9.75,-9.58,-0.04,-2.30,9.85
-2.07,-9.57,0.25,9.79,-9.57,-0.05,-2.31,9.84
-2.05,-9.56,0.25,9.78,-9.59,-0.05,-2.30,9.86
-2.05,-9.58,0.24,9.80,-9.59,-0.08,-2.27,9.85
-2.06,-9.62,0.25,9.84,-9.59,-0.09,-2.28,9.86
-2.07,-9.60,0.23,9.82,-9.59,-0.04,-2.28,9.86
-2.04,-9.60,0.25,9.82,-9.60,-0.05,-2.30,9.87
-2.06,-9.58,0.26,9.81,-9.59,-0.06,-2.28,9.86
-2.06,-9.58,0.23,9.80,-9.61,-0.04,-2.26,9.87
-2.06,-9.59,0.23,9.81,-9.59,-0.06,-2.24,9.84
-2.08,-9.60,0.24,9.82,-9.57,-0.06,-2.29,9.84
-2.05,-9.58,0.22,9.80,-9.59,-0.07,-2.32,9.87
-2.07,-9.59,0.22,9.81,-9.59,-0.04,-2.28,9.86
-2.05,-9.58,0.21,9.80,-9.59,-0.03,-2.29,9.86
-2.07,-9.59,0.23,9.81,-9.60,-0.05,-2.28,9.87
-2.09,-9.59,0.25,9.82,-9.58,-0.05,-2.29,9.85
-2.07,-9.58,0.22,9.81,-9.62,-0.08,-2.30,9.89
-2.05,-9.60,0.22,9.82,-9.57,-0.07,-2.26,9.84
-2.06,-9.60,0.25,9.82,-9.58,-0.05,-2.32,9.86
-2.09,-9.58,0.19,9.81,-9.59,-0.06,-2.29,9.86
-2.04,-9.59,0.22,9.81,-9.60,-0.07,-2.29,9.87
-2.06,-9.59,0.22,9.81,-9.56,-0.07,-2.29,9.83
-2.01,-9.57,0.18,9.78,-9.57,-0.04,-2.25,9.83
-2.02,-9.58,0.19,9.79,-9.61,-0.06,-2.27,9.88
-2.07,-9.63,0.18,9.85,-9.59,-0.03,-2.36,9.87
-2.11,-9.65,0.29,9.88,-9.61,-0.04,-2.34,9.89
-2.06,-9.56,0.24,9.78,-9.55,-0.07,-2.18,9.80
-2.03,-9.53,0.22,9.75,-9.63,-0.06,-2.35,9.91
-2.03,-9.63,0.15,9.84,-9.60,-0.08,-2.28,9.86
-2.02,-9.64,0.18,9.85,-9.61,-0.09,-2.23,9.87
-2.06,-9.57,0.16,9.79,-9.61,-0.07,-2.35,9.90
-2.11,-9.61,0.25,9.84,-9.55,-0.06,-2.29,9.83
-2.09,-9.56,0.25,9.79,-9.56,-0.06,-2.29,9.83
-2.09,-9.50,0.20,9.73,-9.56,-0.02,-2.25,9.82
-2.09,-9.53,0.13,9.76,-9.56,-0.00,-2.26,9.83
-2.11,-9.61,0.14,9.84,-9.58,-0.04,-2.27,9.85
-2.06,-9.64,0.14,9.85,-9.64,-0.03,-2.27,9.91
-2.03,-9.61,0.14,9.83,-9.64,-0.04,-2.28,9.91
-1.99,-9.61,0.13,9.81,-9.64,-0.05,-2.27,9.90
-2.01,-9.62,0.08,9.83,-9.66,-0.07,-2.24,9.92
-2.09,-9.59,0.18,9.82,-9.62,-0.04,-2.25,9.88
-2.06,-9.62,0.16,9.84,-9.61,-0.04,-2.23,9.87
-2.11,-9.55,0.17,9.78,-9.54,-0.03,-2.23,9.80
-2.06,-9.56,0.18,9.78,-9.55,-0.05,-2.25,9.82
-2.06,-9.58,0.19,9.80,-9.57,-0.05,-2.23,9.83
-2.06,-9.55,0.16,9.77,-9.59,-0.03,-2.26,9.85
-2.03,-9.54,0.15,9.75,-9.58,-0.03,-2.25,9.84
-2.00,-9.55,-0.07,9.76,-9.57,-0.03,-2.26,9.84
-2.03,-9.58,0.08,9.79,-9.57,-0.06,-2.25,9.83
-2.06,-9.57,0.03,9.79,-9.59,-0.05,-2.28,9.86
-2.08,-9.61,0.05,9.83,-9.62,-0.06,-2.26,9.88
-2.10,-9.60,0.09,9.83,-9.59,-0.03,-2.22,9.85
-2.02,-9.60,0.07,9.81,-9.66,-0.04,-2.23,9.91
-2.09,-9.62,0.08,9.85,-9.64,-0.06,-2.26,9.90
-2.12,-9.66,0.16,9.89,-9.65,-0.04,-2.34,9.93
-2.06,-9.64,0.18,9.85,-9.65,-0.05,-2.15,9.89
-2.06,-9.54,0.08,9.76,-9.66,-0.04,-2.25,9.92
-2.10,-9.58,0.09,9.81,-9.57,-0.07,-2.22,9.83
-2.11,-9.63,0.35,9.87,-9.58,-0.05,-2.25,9.84
-2.07,-9.58,0.16,9.80,-9.62,-0.05,-2.24,9.87
-2.03,-9.58,0.05,9.79,-9.60,-0.02,-2.21,9.85
-2.03,-9.58,0.05,9.80,-9.60,-0.04,-2.23,9.85
-2.04,-9.61,0.09,9.83,-9.60,-0.06,-2.22,9.85
-2.02,-9.51,0.04,9.72,-9.62,-0.04,-2.25,9.88
-2.06,-9.58,0.14,9.80,-9.58,-0.04,-2.24,9.83
-2.07,-9.60,0.09,9.82,-9.55,-0.05,-2.26,9.81
-2.08,-9.59,0.08,9.81,-9.58,-0.06,-2.23,9.84
-2.07,-9.61,0.10,9.83,-9.60,-0.07,-2.28,9.86
-2.06,-9.65,0.13,9.87,-9.58,-0.06,-2.26,9.84
-2.05,-9.58,0.09,9.80,-9.61,-0.07,-2.23,9.87
-2.01,-9.59,0.10,9.80,-9.60,-0.05,-2.19,9.85
-2.05,-9.59,0.15,9.81,-9.61,-0.07,-2.21,9.86
-2.02,-9.56,0.07,9.77,-9.63,-0.07,-2.20,9.88
-2.04,-9.60,0.09,9.82,-9.63,-0.06,-2.20,9.88
-2.10,-9.62,0.08,9.84,-9.64,-0.05,-2.23,9.90
-2.08,-9.62,0.06,9.84,-9.64,-0.05,-2.25,9.90
-2.07,-9.63,0.09,9.85,-9.59,-0.05,-2.26,9.85
-2.09,-9.61,0.08,9.84,-9.60,-0.05,-2.27,9.86
-2.08,-9.61,0.06,9.83,-9.62,-0.05,-2.23,9.88
-2.05,-9.59,0.07,9.81,-9.59,-0.07,-2.25,9.85
-2.05,-9.61,0.29,9.83,-9.59,-0.04,-2.25,9.85
-2.00,-9.57,-0.04,9.77,-9.58,-0.06,-2.25,9.84
-2.06,-9.59,0.07,9.81,-9.56,-0.06,-2.24,9.82
-2.03,-9.57,0.08,9.79,-9.58,-0.07,-2.24,9.84
-2.03,-9.58,0.08,9.79,-9.56,-0.07,-2.19,9.81
-2.04,-9.58,0.04,9.79,-9.62,-0.04,-2.21,9.87
-2.07,-9.74,0.13,9.96,-9.59,-0.06,-2.21,9.84
-2.05,-9.60,0.07,9.82,-9.63,-0.05,-2.22,9.88
-2.06,-9.60,0.07,9.81,-9.60,-0.05,-2.25,9.86
-2.04,-9.60,0.05,9.82,-9.63,-0.04,-2.22,9.88
-2.06,-9.62,0.08,9.84,-9.62,-0.03,-2.23,9.87
-2.01,-9.58,0.09,9.79,-9.60,-0.04,-2.22,9.86
-2.06,-9.59,0.04,9.81,-9.58,-0.05,-2.23,9.84
-2.05,-9.58,0.07,9.80,-9.58,-0.05,-2.22,9.83
-2.04,-9.58,0.05,9.80,-9.60,-0.08,-2.26,9.86
-2.06,-9.57,0.07,9.79,-9.60,-0.05,-2.22,9.85
-2.04,-9.59,0.04,9.81,-9.59,-0.05,-2.24,9.85
-2.07,-9.61,0.02,9.83,-9.62,-0.04,-2.23,9.88
-2.06,-9.60,0.05,9.82,-9.62,-0.05,-2.23,9.87
-2.05,-9.58,0.06,9.80,-9.60,-0.03,-2.23,9.85
-2.05,-9.60,0.05,9.81,-9.59,-0.05,-2.22,9.84
-2.08,-9.60,0.04,9.82,-9.59,-0.05,-2.21,9.84
-2.07,-9.60,0.07,9.82,-9.61,-0.04,-2.24,9.87
-2.09,-9.60,0.08,9.82,-9.60,-0.04,-2.22,9.85
-2.04,-9.60,0.06,9.82,-9.59,-0.04,-2.21,9.84
-2.01,-9.56,0.02,9.77,-9.61,-0.07,-2.21,9.86
-2.02,-9.65,0.04,9.86,-9.62,-0.04,-2.24,9.88
-2.13,-9.66,0.15,9.89,-9.62,-0.03,-2.30,9.89
-2.06,-9.55,0.19,9.77,-9.58,-0.06,-2.16,9.82
-2.01,-9.50,0.06,9.71,-9.57,-0.03,-2.18,9.82
-1.99,-9.50,-0.04,9.70,-9.64,-0.06,-2.24,9.89
-2.01,-9.68,-0.07,9.89,-9.59,-0.04,-2.08,9.81
-2.00,-9.59,-0.03,9.79,-9.61,-0.03,-2.23,9.87
-2.10,-9.62,0.06,9.85,-9.61,-0.05,-2.32,9.88
-2.07,-9.59,0.11,9.81,-9.59,-0.02,-2.24,9.85
-2.09,-9.53,0.07,9.76,-9.59,0.01,-2.19,9.84
-2.07,-9.52,0.00,9.74,-9.58,-0.03,-2.23,9.84
-2.08,-9.58,-0.03,9.80,-9.57,-0.03,-2.25,9.83
-2.12,-9.65,0.01,9.88,-9.58,0.00,-2.22,9.83
-2.07,-9.54,-0.06,9.76,-9.64,-0.03,-2.21,9.89
-2.02,-9.64,0.02,9.85,-9.67,-0.02,-2.22,9.92
-2.03,-9.65,0.02,9.86,-9.66,-0.02,-2.18,9.91
-2.05,-9.59,0.02,9.81,-9.61,-0.04,-2.18,9.85
-2.05,-9.61,0.02,9.83,-9.60,-0.03,-2.19,9.85
-2.10,-9.59,0.03,9.82,-9.57,-0.01,-2.21,9.82
-2.08,-9.57,0.01,9.79,-9.59,-0.02,-2.17,9.83
-2.05,-9.59,0.01,9.80,-9.61,-0.03,-2.20,9.86
-2.05,-9.59,-0.00,9.81,-9.61,-0.03,-2.17,9.86
-2.04,-9.60,0.02,9.82,-9.60,-0.04,-2.17,9.85
-2.04,-9.59,-0.01,9.80,-9.57,-0.05,-2.19,9.82
-2.02,-9.58,0.03,9.79,-9.58,-0.04,-2.18,9.82
-2.01,-9.59,0.01,9.80,-9.59,-0.04,-2.20,9.84
-2.04,-9.57,0.01,9.79,-9.60,-0.04,-2.21,9.85
-2.04,-9.58,0.00,9.80,-9.62,-0.04,-2.23,9.87
-2.06,-9.57,-0.00,9.79,-9.62,-0.03,-2.21,9.87
-2.04,-9.60,-0.01,9.81,-9.60,-0.02,-2.20,9.85
-2.05,-9.63,0.02,9.85,-9.62,-0.01,-2.17,9.86
-2.05,-9.56,-0.05,9.78,-9.65,-0.02,-2.23,9.91
-2.09,-9.62,0.03,9.84,-9.63,-0.03,-2.22,9.88
-2.06,-9.64,0.05,9.86,-9.68,0.00,-2.17,9.92
-2.02,-9.61,0.02,9.82,-9.63,-0.07,-2.16,9.87
-2.09,-9.58,-0.02,9.80,-9.58,-0.04,-2.24,9.84
-2.09,-9.57,-0.02,9.79,-9.57,-0.06,-2.22,9.82
-2.08,-9.58,-0.01,9.81,-9.63,-0.02,-2.22,9.88
-2.06,-9.58,-0.01,9.80,-9.61,-0.02,-2.21,9.86
-2.00,-9.59,-0.02,9.80,-9.59,-0.06,-2.20,9.84
-2.01,-9.61,-0.05,9.82,-9.60,-0.06,-2.19,9.85
-2.03,-9.62,-0.03,9.83,-9.59,-0.04,-2.20,9.84
-2.03,-9.59,-0.04,9.80,-9.60,-0.04,-2.21,9.85
-2.04,-9.62,-0.02,9.83,-9.61,-0.04,-2.24,9.87
-2.05,-9.59,-0.02,9.81,-9.60,-0.04,-2.22,9.85
-2.04,-9.60,0.01,9.81,-9.61,-0.03,-2.26,9.87
-2.06,-9.58,-0.00,9.80,-9.58,-0.04,-2.20,9.83
-2.06,-9.57,-0.00,9.79,-9.63,-0.05,-2.21,9.89
-2.04,-9.56,-0.00,9.78,-9.61,-0.05,-2.21,9.87
-2.04,-9.60,-0.03,9.81,-9.58,-0.07,-2.21,9.83
-2.09,-9.60,-0.03,9.82,-9.62,-0.05,-2.19,9.87
-2.04,-9.59,-0.03,9.80,-9.59,-0.05,-2.21,9.85
-2.08,-9.61,-0.01,9.83,-9.63,-0.05,-2.19,9.87
-2.06,-9.61,-0.01,9.83,-9.63,-0.03,-2.21,9.88
-2.05,-9.61,-0.00,9.82,-9.63,-0.03,-2.22,9.88
-2.07,-9.60,-0.01,9.82,-9.61,-0.03,-2.24,9.87
-2.05,-9.61,-0.01,9.83,-9.59,-0.03,-2.23,9.85
-2.04,-9.61,0.00,9.82,-9.62,-0.03,-2.23,9.88
-2.05,-9.59,-0.02,9.81,-9.60,-0.02,-2.25,9.86
-2.07,-9.60,-0.02,9.82,-9.59,-0.01,-2.23,9.84
-2.04,-9.58,-0.01,9.80,-9.61,-0.04,-2.22,9.86
-2.04,-9.59,-0.00,9.80,-9.63,-0.03,-2.20,9.88
-2.03,-9.60,0.02,9.81,-9.61,-0.05,-2.21,9.86
-2.04,-9.61,0.03,9.83,-9.60,-0.06,-2.21,9.86
-2.04,-9.60,0.02,9.81,-9.62,-0.06,-2.20,9.87
-2.05,-9.63,0.01,9.85,-9.60,-0.05,-2.22,9.85
-2.08,-9.58,-0.01,9.80,-9.64,-0.04,-2.23,9.89
-2.05,-9.62,0.02,9.84,-9.63,-0.03,-2.21,9.88
-2.07,-9.61,0.04,9.83,-9.60,-0.02,-2.24,9.86
-2.05,-9.61,0.01,9.83,-9.61,-0.04,-2.23,9.87
-2.05,-9.63,0.01,9.84,-9.60,-0.04,-2.25,9.86
-2.07,-9.54,0.03,9.76,-9.58,-0.03,-2.25,9.84
-2.07,-9.58,0.02,9.80,-9.60,-0.04,-2.23,9.86
-2.03,-9.59,0.01,9.80,-9.61,-0.04,-2.25,9.87
-2.07,-9.62,-0.01,9.84,-9.61,-0.04,-2.25,9.87
-2.05,-9.58,0.05,9.80,-9.59,-0.06,-2.26,9.85
-2.01,-9.59,0.01,9.80,-9.61,-0.05,-2.26,9.88
-2.03,-9.61,0.03,9.82,-9.60,-0.08,-2.28,9.87
-2.06,-9.60,0.06,9.82,-9.59,-0.04,-2.27,9.86
-2.04,-9.58,0.06,9.80,-9.57,-0.05,-2.28,9.83
-2.07,-9.59,0.09,9.81,-9.60,-0.04,-2.25,9.86
-2.04,-9.56,0.09,9.78,-9.57,-0.07,-2.25,9.83
-2.07,-9.59,0.10,9.82,-9.60,-0.05,-2.29,9.87
-2.04,-9.59,0.07,9.80,-9.58,-0.06,-2.27,9.85
-2.03,-9.57,0.07,9.78,-9.61,-0.06,-2.24,9.86
-2.03,-9.63,0.05,9.84,-9.59,-0.06,-2.26,9.86
-2.12,-9.62,0.25,9.86,-9.64,-0.03,-2.34,9.92
-2.09,-9.63,0.23,9.85,-9.59,-0.03,-2.13,9.82
-1.99,-9.48,0.11,9.69,-9.58,-0.05,-2.32,9.86
-1.98,-9.59,-0.01,9.79,-9.61,-0.05,-2.36,9.89
-2.06,-9.68,0.01,9.90,-9.58,-0.04,-2.11,9.81
-2.02,-9.49,0.05,9.70,-9.65,-0.01,-2.36,9.93
-2.13,-9.66,0.25,9.89,-9.55,-0.07,-2.33,9.83
-2.09,-9.53,0.28,9.76,-9.56,-0.03,-2.29,9.83
-2.09,-9.53,0.25,9.76,-9.55,-0.02,-2.24,9.81
-2.09,-9.53,0.09,9.75,-9.56,-0.01,-2.26,9.82
-2.13,-9.58,0.12,9.82,-9.57,0.01,-2.25,9.83
-2.12,-9.58,0.14,9.81,-9.63,0.00,-2.23,9.88
-2.07,-9.61,0.12,9.83,-9.65,-0.03,-2.25,9.91
-2.06,-9.71,0.12,9.92,-9.68,-0.04,-2.26,9.94
-2.10,-9.66,0.14,9.88,-9.65,-0.07,-2.21,9.90
-2.07,-9.68,0.21,9.90,-9.62,-0.03,-2.26,9.88
-2.08,-9.58,0.20,9.80,-9.57,-0.05,-2.27,9.84
-2.10,-9.61,0.18,9.84,-9.57,-0.03,-2.25,9.83
-2.07,-9.60,0.20,9.82,-9.60,-0.03,-2.23,9.85
-2.07,-9.59,0.19,9.82,-9.57,-0.03,-2.24,9.83
-2.04,-9.54,0.13,9.76,-9.57,-0.03,-2.24,9.82
-2.02,-9.54,0.20,9.76,-9.58,-0.02,-2.25,9.84
-2.04,-9.57,0.20,9.79,-9.57,-0.04,-2.25,9.83
-2.04,-9.59,0.21,9.81,-9.59,-0.07,-2.28,9.86
-2.04,-9.56,0.22,9.78,-9.59,-0.09,-2.27,9.85
-2.08,-9.57,0.20,9.80,-9.59,-0.08,-2.26,9.86
-2.09,-9.65,0.21,9.88,-9.60,-0.05,-2.28,9.87
-2.06,-9.63,0.16,9.84,-9.64,-0.02,-2.26,9.90
-2.03,-9.63,0.21,9.85,-9.66,-0.05,-2.30,9.93
-2.06,-9.60,0.14,9.82,-9.59,-0.04,-2.22,9.84
-2.10,-9.60,0.21,9.82,-9.64,-0.03,-2.36,9.93
-2.12,-9.66,0.31,9.89,-9.61,-0.07,-2.25,9.87
-2.05,-9.60,0.27,9.82,-9.62,-0.05,-2.33,9.90
-2.07,-9.55,0.22,9.77,-9.56,-0.08,-2.26,9.82
-2.03,-9.48,-0.15,9.70,-9.54,-0.05,-2.31,9.82
-2.06,-9.55,0.31,9.77,-9.57,-0.04,-2.29,9.84
-2.07,-9.59,0.28,9.82,-9.63,-0.06,-2.28,9.90
-2.05,-9.64,0.36,9.87,-9.58,-0.06,-2.30,9.85
-2.02,-9.58,0.21,9.80,-9.57,-0.08,-2.30,9.85
-2.01,-9.59,0.21,9.80,-9.58,-0.08,-2.27,9.84
-2.02,-9.58,0.20,9.79,-9.59,-0.08,-2.29,9.86
-2.03,-9.55,0.18,9.77,-9.57,-0.07,-2.33,9.85
-2.05,-9.63,0.19,9.85,-9.55,-0.09,-2.31,9.83
-2.06,-9.57,0.23,9.79,-9.59,-0.06,-2.36,9.87
-2.06,-9.57,0.22,9.79,-9.58,-0.08,-2.31,9.85
-2.03,-9.56,0.22,9.77,-9.57,-0.05,-2.30,9.85
-2.03,-9.58,0.30,9.79,-9.57,-0.09,-2.31,9.85
-2.04,-9.59,0.25,9.81,-9.60,-0.07,-2.31,9.87
-2.04,-9.61,0.22,9.83,-9.59,-0.08,-2.30,9.86
-2.06,-9.60,0.22,9.82,-9.61,-0.08,-2.28,9.88
-2.07,-9.59,0.22,9.81,-9.60,-0.08,-2.34,9.88
-2.10,-9.59,0.18,9.82,-9.57,-0.05,-2.36,9.86
-2.09,-9.64,0.22,9.87,-9.57,-0.05,-2.34,9.86
-2.05,-9.61,0.20,9.83,-9.59,-0.07,-2.35,9.88
-2.06,-9.60,0.23,9.82,-9.60,-0.06,-2.34,9.88
-2.04,-9.56,0.24,9.78,-9.55,-0.05,-2.35,9.84
-2.05,-9.59,0.23,9.81,-9.57,-0.09,-2.30,9.85
-2.05,-9.57,0.24,9.79,-9.58,-0.09,-2.35,9.86
-2.04,-9.54,0.20,9.76,-9.54,-0.10,-2.31,9.82
-2.04,-9.55,0.29,9.77,-9.56,-0.09,-2.33,9.84
-2.05,-9.57,0.23,9.79,-9.59,-0.08,-2.31,9.86
-2.03,-9.58,0.22,9.79,-9.58,-0.09,-2.31,9.85
-2.04,-9.57,0.22,9.78,-9.57,-0.09,-2.35,9.86
-2.04,-9.60,0.22,9.81,-9.54,-0.09,-2.33,9.82
-2.06,-9.59,0.21,9.81,-9.56,-0.08,-2.33,9.84
-2.07,-9.57,0.25,9.79,-9.60,-0.08,-2.31,9.88
-2.06,-9.60,0.24,9.82,-9.59,-0.08,-2.35,9.88
-2.10,-9.65,0.33,9.88,-9.59,-0.08,-2.34,9.87
-2.05,-9.61,0.28,9.83,-9.60,-0.07,-2.34,9.88
-2.07,-9.59,0.26,9.81,-9.59,-0.07,-2.35,9.87
-2.01,-9.56,-0.04,9.77,-9.55,-0.09,-2.34,9.84
-2.06,-9.57,0.26,9.79,-9.59,-0.11,-2.35,9.87
-2.05,-9.58,0.28,9.80,-9.59,-0.07,-2.36,9.88
-2.04,-9.58,0.26,9.80,-9.54,-0.07,-2.33,9.82
-2.04,-9.53,0.25,9.75,-9.53,-0.09,-2.35,9.82
-2.09,-9.57,0.25,9.80,-9.57,-0.10,-2.34,9.85
-2.06,-9.57,0.26,9.80,-9.54,-0.08,-2.33,9.82
-2.06,-9.57,0.24,9.79,-9.54,-0.08,-2.34,9.83
-2.01,-9.56,0.23,9.77,-9.55,-0.07,-2.32,9.82
-2.05,-9.59,0.22,9.81,-9.58,-0.04,-2.35,9.86
-2.10,-9.60,0.27,9.83,-9.59,-0.08,-2.34,9.87
-2.09,-9.60,0.39,9.84,-9.57,-0.07,-2.33,9.85
-2.09,-9.58,0.30,9.81,-9.56,-0.06,-2.26,9.82
-2.00,-9.54,0.25,9.75,-9.58,-0.10,-2.34,9.86
-2.03,-9.59,0.25,9.81,-9.58,-0.10,-2.31,9.85
-2.02,-9.60,0.22,9.81,-9.57,-0.11,-2.31,9.85
-2.04,-9.56,0.20,9.78,-9.57,-0.13,-2.38,9.86
-2.11,-9.60,0.29,9.84,-9.50,-0.12,-2.34,9.79
-2.13,-9.55,0.33,9.80,-9.55,-0.03,-2.27,9.82
-2.12,-9.51,0.21,9.75,-9.56,-0.06,-2.31,9.83
-2.09,-9.57,0.13,9.80,-9.60,-0.04,-2.36,9.88
-2.08,-9.68,0.12,9.90,-9.65,-0.06,-2.29,9.92
-2.01,-9.69,0.14,9.89,-9.65,-0.05,-2.29,9.92
-1.98,-9.65,0.21,9.85,-9.67,-0.11,-2.34,9.95
-2.01,-9.63,0.19,9.84,-9.60,-0.11,-2.32,9.88
-2.05,-9.62,0.24,9.84,-9.59,-0.08,-2.31,9.87
-2.10,-9.57,0.25,9.80,-9.55,-0.06,-2.33,9.83
-2.08,-9.57,0.23,9.79,-9.53,-0.06,-2.32,9.81
-2.09,-9.56,0.21,9.79,-9.54,-0.06,-2.29,9.81
-2.05,-9.54,0.20,9.76,-9.55,-0.04,-2.29,9.82
-2.05,-9.54,0.22,9.76,-9.55,-0.05,-2.30,9.82
-2.04,-9.54,0.15,9.76,-9.57,-0.08,-2.29,9.84
-2.04,-9.55,0.19,9.77,-9.55,-0.06,-2.27,9.82
-2.06,-9.55,0.15,9.77,-9.59,-0.06,-2.30,9.86
-2.06,-9.61,0.20,9.83,-9.58,-0.07,-2.30,9.85
-2.05,-9.57,0.18,9.79,-9.55,-0.06,-2.31,9.83
-2.10,-9.60,0.18,9.83,-9.62,-0.05,-2.28,9.89
-2.07,-9.58,0.16,9.80,-9.62,-0.06,-2.31,9.89
-1.99,-9.59,0.14,9.79,-9.61,-0.04,-2.23,9.86
-2.06,-9.60,0.19,9.82,-9.62,-0.08,-2.30,9.89
-2.09,-9.61,0.25,9.83,-9.57,-0.10,-2.31,9.85
-2.05,-9.60,0.21,9.81,-9.66,-0.08,-2.29,9.93
-2.05,-9.59,0.18,9.81,-9.59,-0.12,-2.27,9.86
-2.08,-9.60,0.17,9.82,-9.60,-0.09,-2.29,9.87
-2.08,-9.58,0.16,9.80,-9.57,-0.08,-2.27,9.84
-2.06,-9.58,0.11,9.80,-9.62,-0.07,-2.28,9.89
-2.07,-9.59,0.12,9.81,-9.61,-0.08,-2.27,9.87
-2.07,-9.61,0.30,9.83,-9.62,-0.08,-2.27,9.88
-2.03,-9.61,0.19,9.83,-9.59,-0.07,-2.26,9.85
-2.03,-9.58,0.17,9.79,-9.55,-0.09,-2.29,9.82
-2.02,-9.57,0.21,9.79,-9.56,-0.04,-2.32,9.83
-2.04,-9.56,0.22,9.78,-9.55,-0.07,-2.31,9.82
-2.03,-9.54,0.21,9.76,-9.58,-0.07,-2.30,9.85
-2.07,-9.57,0.14,9.80,-9.58,-0.05,-2.28,9.85
-2.00,-9.52,-0.14,9.73,-9.58,-0.05,-2.27,9.84
-2.07,-9.61,0.08,9.83,-9.59,-0.05,-2.29,9.86
-2.06,-9.61,0.13,9.83,-9.65,-0.08,-2.29,9.92
-2.06,-9.66,0.25,9.88,-9.64,-0.06,-2.25,9.90
-2.09,-9.64,0.12,9.86,-9.65,-0.08,-2.27,9.91
-2.05,-9.65,0.19,9.87,-9.58,-0.07,-2.22,9.83
-2.07,-9.62,0.15,9.84,-9.62,-0.08,-2.33,9.90
-2.07,-9.63,0.17,9.85,-9.63,-0.07,-2.29,9.90
-2.05,-9.60,0.18,9.82,-9.58,-0.07,-2.28,9.85
-2.01,-9.59,0.20,9.80,-9.59,-0.07,-2.26,9.85
-2.04,-9.53,0.17,9.75,-9.57,-0.09,-2.31,9.85
-2.04,-9.56,0.22,9.78,-9.56,-0.07,-2.26,9.83
-2.05,-9.56,0.16,9.78,-9.58,-0.10,-2.26,9.84
-2.06,-9.55,0.16,9.77,-9.57,-0.08,-2.24,9.83
-2.04,-9.49,0.18,9.71,-9.57,-0.08,-2.27,9.84
-2.06,-9.59,0.20,9.81,-9.60,-0.06,-2.24,9.86
-2.05,-9.61,0.23,9.83,-9.61,-0.08,-2.31,9.88
-2.07,-9.61,0.17,9.83,-9.57,-0.08,-2.24,9.83
-2.05,-9.58,0.15,9.80,-9.60,-0.06,-2.28,9.87
-2.05,-9.60,0.17,9.81,-9.59,-0.06,-2.25,9.85
-2.03,-9.57,0.09,9.79,-9.59,-0.06,-2.27,9.86
-2.04,-9.60,0.10,9.81,-9.58,-0.08,-2.27,9.85
-2.05,-9.61,0.16,9.82,-9.60,-0.10,-2.29,9.87
-2.04,-9.60,0.19,9.82,-9.62,-0.09,-2.27,9.88
-2.06,-9.61,0.14,9.83,-9.61,-0.06,-2.27,9.87
-2.04,-9.62,0.13,9.84,-9.61,-0.06,-2.29,9.88
-2.05,-9.60,0.16,9.82,-9.62,-0.06,-2.26,9.88
-2.05,-9.61,0.12,9.82,-9.61,-0.07,-2.27,9.87
-2.04,-9.59,0.10,9.81,-9.60,-0.08,-2.29,9.87
-2.06,-9.61,0.17,9.83,-9.60,-0.07,-2.27,9.86
-2.03,-9.62,0.15,9.83,-9.60,-0.08,-2.27,9.87
-2.00,-9.59,0.10,9.80,-9.58,-0.11,-2.25,9.85
-2.03,-9.58,0.15,9.79,-9.61,-0.07,-2.31,9.88
-2.13,-9.60,0.24,9.84,-9.60,-0.09,-2.32,9.87
-2.07,-9.58,0.29,9.81,-9.55,-0.08,-2.17,9.80
-1.99,-9.49,0.10,9.70,-9.58,-0.07,-2.26,9.84
-1.97,-9.59,0.14,9.79,-9.63,-0.10,-2.31,9.90
-1.97,-9.59,0.04,9.79,-9.56,-0.13,-2.16,9.80
-1.98,-9.60,0.05,9.80,-9.61,-0.10,-2.33,9.89
-2.06,-9.60,0.20,9.82,-9.53,-0.10,-2.32,9.81
-2.07,-9.58,0.20,9.80,-9.56,-0.06,-2.27,9.83
-2.09,-9.55,0.15,9.78,-9.56,-0.09,-2.23,9.82
-2.06,-9.54,0.07,9.76,-9.59,-0.07,-2.22,9.84
-2.13,-9.62,0.13,9.86,-9.62,-0.05,-2.25,9.88
-2.12,-9.70,0.08,9.93,-9.60,-0.05,-2.23,9.86
-2.05,-9.61,0.05,9.83,-9.66,-0.04,-2.26,9.92
-2.05,-9.66,0.10,9.88,-9.67,-0.07,-2.23,9.92
-1.98,-9.63,0.09,9.84,-9.65,-0.08,-2.22,9.90
-2.02,-9.62,0.19,9.83,-9.64,-0.08,-2.20,9.89
-2.06,-9.64,0.16,9.86,-9.59,-0.06,-2.21,9.84
-2.09,-9.57,0.15,9.80,-9.55,-0.08,-2.18,9.79
-2.08,-9.60,0.12,9.83,-9.60,-0.04,-2.19,9.84
-2.04,-9.49,0.07,9.70,-9.58,-0.06,-2.17,9.82
-2.04,-9.57,0.08,9.78,-9.57,-0.08,-2.18,9.81
-2.08,-9.61,0.24,9.84,-9.61,-0.07,-2.19,9.86
-2.03,-9.61,0.02,9.82,-9.63,-0.08,-2.21,9.88
-2.01,-9.43,0.03,9.64,-9.57,-0.06,-2.20,9.82
-2.04,-9.59,0.08,9.81,-9.60,-0.07,-2.25,9.86
-2.04,-9.61,0.09,9.83,-9.59,-0.08,-2.24,9.85
-2.06,-9.65,0.11,9.87,-9.60,-0.03,-2.23,9.85
-2.07,-9.57,0.07,9.80,-9.62,-0.05,-2.22,9.87
-2.03,-9.62,0.11,9.83,-9.68,-0.05,-2.19,9.92
-2.05,-9.60,0.04,9.81,-9.63,-0.04,-2.19,9.88
-2.06,-9.61,0.02,9.83,-9.64,-0.06,-2.22,9.89
-2.05,-9.66,0.09,9.88,-9.62,-0.08,-2.23,9.87
-2.04,-9.63,0.06,9.84,-9.68,-0.07,-2.25,9.94
-1.99,-9.54,-0.18,9.74,-9.58,-0.11,-2.21,9.83
-2.09,-9.64,0.10,9.86,-9.56,-0.08,-2.23,9.82
-2.09,-9.54,0.10,9.77,-9.58,-0.07,-2.20,9.83
-2.06,-9.58,-0.00,9.79,-9.59,-0.02,-2.23,9.85
-2.03,-9.57,0.08,9.79,-9.58,-0.07,-2.19,9.83
-1.97,-9.55,0.05,9.76,-9.59,-0.06,-2.22,9.85
-2.02,-9.56,0.06,9.77,-9.60,-0.06,-2.20,9.85
-2.01,-9.58,0.04,9.79,-9.59,-0.07,-2.21,9.84
-2.04,-9.59,0.04,9.81,-9.61,-0.05,-2.22,9.86
-2.06,-9.65,0.09,9.87,-9.61,-0.07,-2.22,9.86
-2.04,-9.59,0.03,9.80,-9.59,-0.09,-2.24,9.85
-2.06,-9.60,0.08,9.82,-9.61,-0.09,-2.24,9.87
-2.04,-9.60,0.03,9.81,-9.61,-0.07,-2.23,9.87
-2.01,-9.56,0.06,9.77,-9.62,-0.06,-2.21,9.87
-2.00,-9.56,0.05,9.77,-9.63,-0.11,-2.24,9.88
-2.01,-9.60,0.03,9.81,-9.62,-0.08,-2.24,9.88
-2.02,-9.59,0.03,9.81,-9.62,-0.07,-2.25,9.88
-2.04,-9.60,0.02,9.82,-9.61,-0.05,-2.23,9.86
-2.05,-9.58,0.02,9.80,-9.62,-0.07,-2.23,9.88
-2.04,-9.62,0.03,9.83,-9.63,-0.07,-2.23,9.88
-2.00,-9.46,0.05,9.67,-9.60,-0.08,-2.25,9.86
-2.04,-9.57,0.06,9.79,-9.61,-0.08,-2.23,9.86
-2.00,-9.61,0.06,9.82,-9.61,-0.08,-2.23,9.87
-2.03,-9.60,0.05,9.81,-9.60,-0.05,-2.21,9.85
-2.02,-9.58,0.04,9.79,-9.60,-0.06,-2.24,9.86
-2.01,-9.60,0.06,9.81,-9.59,-0.08,-2.23,9.85
-2.02,-9.58,0.01,9.79,-9.62,-0.07,-2.23,9.88
-2.03,-9.59,0.02,9.81,-9.60,-0.09,-2.20,9.85
-2.05,-9.60,0.04,9.82,-9.57,-0.06,-2.19,9.82
-2.02,-9.57,0.04,9.78,-9.60,-0.07,-2.20,9.85
-2.01,-9.45,0.02,9.66,-9.58,-0.05,-2.22,9.84
-2.02,-9.58,-0.00,9.79,-9.60,-0.05,-2.20,9.85
-2.02,-9.59,0.03,9.80,-9.58,-0.05,-2.23,9.83
-2.05,-9.62,0.02,9.84,-9.59,-0.05,-2.24,9.85
-2.05,-9.60,0.01,9.82,-9.61,-0.06,-2.22,9.86
-2.07,-9.60,0.01,9.82,-9.60,-0.08,-2.21,9.86
