Ax,Ay,Az,Amag,Ax2,Ay2,Az2,Amag2
-1.72,-9.68,0.06,9.84,-9.66,-0.10,-1.99,9.86
-1.67,-9.71,0.05,9.85,-9.73,-0.09,-2.01,9.93
-1.70,-9.68,0.05,9.83,-9.67,-0.11,-1.99,9.88
-1.73,-9.75,0.12,9.91,-9.68,-0.11,-1.99,9.89
-1.74,-9.71,0.11,9.87,-9.67,-0.09,-1.98,9.87
-1.77,-9.71,0.16,9.87,-9.66,-0.09,-1.94,9.86
-1.73,-9.66,0.11,9.81,-9.65,-0.11,-1.97,9.85
-1.72,-9.63,0.07,9.78,-9.66,-0.08,-1.93,9.85
-1.70,-9.64,0.05,9.79,-9.64,-0.08,-1.94,9.83
-1.70,-9.66,0.05,9.81,-9.66,-0.08,-1.94,9.85
-1.69,-9.64,0.08,9.79,-9.64,-0.11,-1.97,9.84
-1.72,-9.66,0.09,9.82,-9.64,-0.09,-1.97,9.84
-1.72,-9.63,-0.03,9.78,-9.66,-0.08,-2.04,9.87
-1.77,-9.65,0.07,9.81,-9.64,-0.07,-1.98,9.84
-1.77,-9.65,0.05,9.81,-9.64,-0.11,-1.96,9.84
-1.69,-9.66,0.05,9.81,-9.63,-0.05,-1.92,9.82
-1.77,-9.68,0.05,9.84,-9.69,-0.05,-2.02,9.89
-1.80,-9.70,0.11,9.86,-9.64,-0.07,-2.03,9.85
-1.77,-9.68,0.13,9.84,-9.67,-0.06,-1.95,9.86
-1.74,-9.67,0.12,9.83,-9.69,-0.14,-2.00,9.90
-1.74,-9.71,0.12,9.86,-9.67,-0.12,-1.97,9.86
-1.77,-9.65,0.16,9.82,-9.68,-0.07,-2.01,9.89
-1.77,-9.65,0.00,9.81,-9.65,-0.09,-1.98,9.85
-1.76,-9.65,-0.03,9.81,-9.67,-0.07,-1.98,9.87
-1.74,-9.67,0.02,9.82,-9.68,-0.08,-1.98,9.88
-1.74,-9.63,0.06,9.79,-9.65,-0.06,-1.99,9.86
-1.79,-9.64,0.06,9.80,-9.66,-0.05,-1.96,9.86
-1.77,-9.64,0.08,9.80,-9.63,-0.03,-2.02,9.84
-1.78,-9.64,0.07,9.81,-9.66,-0.05,-2.00,9.87
-1.78,-9.59,0.07,9.75,-9.64,-0.04,-1.96,9.84
-1.76,-9.63,0.08,9.78,-9.63,-0.01,-1.98,9.83
-1.74,-9.66,0.07,9.81,-9.63,-0.04,-1.98,9.83
-1.75,-9.65,0.07,9.81,-9.65,-0.08,-1.96,9.85
-1.70,-9.63,0.10,9.78,-9.65,-0.09,-1.98,9.85
-1.74,-9.65,0.12,9.80,-9.66,-0.06,-1.98,9.86
-1.73,-9.65,0.13,9.81,-9.68,-0.08,-1.95,9.88
-1.77,-9.67,0.08,9.83,-9.67,-0.08,-1.97,9.87
-1.76,-9.68,0.05,9.84,-9.68,-0.06,-1.98,9.88
-1.78,-9.66,0.06,9.83,-9.67,-0.03,-1.98,9.87
-1.78,-9.65,0.08,9.82,-9.66,-0.05,-1.93,9.85
-1.77,-9.69,0.05,9.85,-9.66,-0.04,-1.99,9.86
-1.77,-9.64,0.03,9.80,-9.68,-0.04,-1.94,9.87
-1.75,-9.67,0.05,9.83,-9.65,-0.04,-2.00,9.86
-1.75,-9.64,0.12,9.80,-9.67,-0.05,-1.98,9.87
-1.75,-9.63,-0.05,9.79,-9.66,-0.06,-1.96,9.86
-1.77,-9.64,0.03,9.80,-9.63,-0.05,-1.99,9.83
-1.75,-9.63,0.11,9.79,-9.63,-0.04,-1.94,9.82
-1.77,-9.64,0.07,9.80,-9.65,-0.03,-1.97,9.85
-1.78,-9.63,0.07,9.79,-9.66,-0.04,-1.93,9.85
-1.74,-9.64,0.07,9.80,-9.66,-0.07,-1.94,9.86
-1.77,-9.69,0.08,9.85,-9.68,-0.08,-1.96,9.87
-1.75,-9.68,0.04,9.84,-9.66,-0.07,-1.97,9.86
-1.77,-9.67,0.04,9.83,-9.64,-0.08,-1.97,9.84
-1.77,-9.69,0.05,9.85,-9.69,-0.08,-1.95,9.88
-1.75,-9.67,0.07,9.83,-9.66,-0.08,-1.99,9.86
-1.75,-9.66,0.06,9.82,-9.69,-0.08,-1.93,9.89
-1.70,-9.62,0.04,9.77,-9.66,-0.06,-1.97,9.86
-1.76,-9.69,0.06,9.85,-9.66,-0.05,-2.00,9.87
-1.79,-9.70,0.25,9.86,-9.69,-0.06,-1.95,9.88
-1.79,-9.64,0.10,9.80,-9.65,-0.07,-1.87,9.83
-1.68,-9.57,-0.06,9.71,-9.69,-0.06,-2.11,9.91
-1.65,-9.68,-0.06,9.82,-9.66,-0.08,-1.93,9.85
-1.70,-9.70,-0.02,9.85,-9.64,-0.08,-1.91,9.83
-1.76,-9.68,0.05,9.84,-9.67,-0.10,-2.01,9.87
-1.81,-9.72,0.19,9.89,-9.65,-0.09,-1.92,9.84
-1.78,-9.63,0.20,9.79,-9.60,-0.11,-1.78,9.76
-1.74,-9.61,0.16,9.77,-9.57,-0.13,-1.75,9.73
-1.74,-9.60,0.08,9.75,-9.56,-0.08,-1.82,9.74
-1.79,-9.64,-0.04,9.81,-9.66,-0.03,-1.82,9.83
-1.79,-9.73,-0.03,9.89,-9.76,-0.02,-1.91,9.94
-1.76,-9.73,0.04,9.89,-9.74,-0.07,-1.85,9.92
-1.73,-9.81,0.08,9.96,-9.77,-0.11,-2.01,9.98
-1.68,-9.80,0.29,9.95,-9.76,-0.03,-1.80,9.92
-1.70,-9.74,0.13,9.89,-9.79,-0.01,-1.92,9.97
-1.71,-9.74,0.15,9.89,-9.74,0.01,-1.97,9.94
-1.73,-9.67,0.11,9.83,-9.71,-0.00,-2.00,9.91
-1.75,-9.62,0.14,9.78,-9.63,-0.02,-2.05,9.84
-1.74,-9.53,0.10,9.69,-9.54,-0.01,-1.96,9.73
-1.76,-9.60,0.31,9.77,-9.62,0.03,-1.96,9.82
-1.74,-9.54,0.01,9.70,-9.61,0.04,-1.94,9.80
-1.75,-9.55,0.03,9.71,-9.61,0.06,-1.88,9.79
-1.76,-9.55,0.09,9.71,-9.66,0.09,-1.94,9.86
-1.76,-9.57,0.07,9.73,-9.61,0.05,-1.79,9.77
-1.79,-9.63,0.03,9.79,-9.63,0.02,-1.76,9.78
-1.79,-9.67,0.07,9.84,-9.74,0.01,-1.83,9.91
-1.75,-9.74,0.01,9.89,-9.72,0.04,-1.79,9.88
-1.74,-9.68,-0.04,9.83,-9.70,0.04,-1.91,9.89
-1.75,-9.70,0.10,9.85,-9.76,-0.05,-1.93,9.95
-1.73,-9.68,0.11,9.84,-9.73,0.02,-1.89,9.91
-1.69,-9.68,0.09,9.83,-9.73,-0.02,-1.97,9.93
-1.69,-9.66,0.05,9.80,-9.71,-0.05,-1.92,9.90
-1.74,-9.65,0.00,9.81,-9.64,0.01,-1.87,9.82
-1.71,-9.57,-0.03,9.72,-9.66,-0.01,-1.83,9.83
-1.73,-9.62,0.04,9.78,-9.64,-0.02,-1.84,9.81
-1.74,-9.60,0.05,9.76,-9.63,-0.01,-1.82,9.80
-1.72,-9.64,0.06,9.79,-9.62,0.01,-1.75,9.77
-1.77,-9.64,0.09,9.80,-9.66,0.01,-1.80,9.83
-1.76,-9.64,0.07,9.80,-9.69,-0.01,-1.86,9.87
-1.76,-9.65,0.02,9.81,-9.71,0.00,-1.88,9.89
-1.73,-9.64,-0.09,9.79,-9.67,0.01,-1.86,9.85
-1.72,-9.70,0.02,9.86,-9.67,-0.00,-1.86,9.85
-1.69,-9.72,-0.07,9.86,-9.69,-0.02,-1.87,9.87
-1.69,-9.72,-0.01,9.87,-9.70,-0.03,-1.85,9.88
-1.69,-9.67,-0.01,9.81,-9.65,-0.01,-1.89,9.84
-1.72,-9.65,0.01,9.80,-9.68,-0.04,-1.85,9.86
-1.72,-9.66,0.05,9.81,-9.68,-0.00,-1.86,9.86
-1.76,-9.66,0.04,9.82,-9.70,0.01,-1.87,9.88
-1.78,-9.68,0.06,9.85,-9.69,0.01,-1.83,9.86
-1.78,-9.61,-0.01,9.78,-9.68,0.04,-1.88,9.87
-1.83,-9.64,-0.00,9.82,-9.71,0.07,-1.84,9.88
-1.80,-9.64,0.01,9.81,-9.71,0.06,-1.86,9.89
-1.78,-9.65,0.07,9.81,-9.70,0.01,-1.84,9.87
-1.79,-9.65,0.01,9.82,-9.71,-0.03,-1.84,9.88
-1.77,-9.68,0.09,9.84,-9.66,-0.02,-1.85,9.84
-1.79,-9.66,0.04,9.83,-9.70,-0.02,-1.86,9.88
-1.74,-9.67,0.00,9.82,-9.69,-0.01,-1.85,9.86
-1.75,-9.67,0.02,9.83,-9.73,0.04,-1.82,9.90
-1.77,-9.66,-0.01,9.82,-9.72,0.04,-1.84,9.89
-1.76,-9.64,-0.02,9.80,-9.73,0.04,-1.85,9.90
-1.74,-9.66,0.05,9.81,-9.72,-0.04,-1.88,9.90
-1.68,-9.66,-0.02,9.81,-9.69,-0.05,-1.87,9.87
-1.67,-9.69,-0.00,9.83,-9.68,-0.05,-1.94,9.87
-1.65,-9.67,-0.03,9.81,-9.68,-0.00,-1.95,9.88
-1.64,-9.66,-0.05,9.80,-9.70,0.03,-1.90,9.88
-1.63,-9.68,-0.06,9.81,-9.70,0.00,-1.93,9.89
-1.73,-9.65,-0.02,9.80,-9.69,0.00,-1.85,9.87
-1.78,-9.66,0.01,9.83,-9.70,-0.01,-1.87,9.88
-1.84,-9.66,0.03,9.83,-9.70,-0.02,-1.86,9.88
-1.90,-9.66,0.03,9.84,-9.70,-0.05,-1.91,9.88
-1.92,-9.65,0.02,9.84,-9.62,-0.07,-1.90,9.81
-1.77,-9.62,0.00,9.78,-9.64,-0.07,-1.95,9.84
-1.74,-9.64,0.00,9.79,-9.64,-0.07,-1.97,9.84
-1.73,-9.66,-0.03,9.82,-9.58,-0.04,-1.99,9.78
-1.67,-9.65,0.11,9.79,-9.49,-0.05,-1.90,9.68
-1.66,-9.51,-0.00,9.65,-9.56,-0.03,-1.93,9.75
-1.61,-9.51,-0.16,9.65,-9.62,-0.01,-2.06,9.84
-1.59,-9.69,-0.13,9.82,-9.64,-0.03,-1.81,9.81
-1.63,-9.74,-0.14,9.87,-9.74,-0.04,-1.92,9.93
-1.74,-9.75,-0.11,9.90,-9.75,-0.07,-1.99,9.95
-1.87,-9.73,0.05,9.91,-9.73,-0.03,-2.07,9.95
-1.80,-9.70,-0.09,9.86,-9.67,-0.00,-2.05,9.88
-1.74,-9.59,-0.06,9.74,-9.63,0.01,-2.01,9.84
-1.79,-9.68,0.02,9.85,-9.64,0.02,-2.03,9.85
-1.77,-9.66,-0.14,9.83,-9.72,0.01,-1.97,9.92
-1.78,-9.68,-0.04,9.85,-9.72,0.03,-1.94,9.91
-1.77,-9.72,-0.05,9.88,-9.74,0.01,-1.89,9.92
-1.77,-9.72,-0.05,9.88,-9.77,-0.01,-1.86,9.95
-1.85,-9.71,0.02,9.89,-9.77,-0.02,-1.85,9.94
-1.86,-9.70,0.02,9.88,-9.64,-0.06,-1.86,9.82
-1.81,-9.63,0.02,9.80,-9.67,-0.03,-1.96,9.87
-1.79,-9.60,0.03,9.77,-9.56,0.02,-1.90,9.75
-1.75,-9.56,-0.01,9.72,-9.57,0.02,-1.92,9.77
-1.71,-9.55,-0.03,9.70,-9.60,0.02,-1.87,9.79
-1.74,-9.60,0.01,9.75,-9.61,0.02,-1.91,9.80
-1.77,-9.58,0.08,9.75,-9.67,-0.03,-1.87,9.85
-1.80,-9.60,0.11,9.77,-9.68,-0.07,-1.85,9.86
-1.81,-9.61,0.14,9.78,-9.71,-0.05,-1.85,9.89
-1.84,-9.65,0.15,9.82,-9.74,-0.06,-1.87,9.92
-1.87,-9.68,0.09,9.86,-9.73,-0.01,-1.85,9.90
-1.82,-9.71,0.11,9.88,-9.75,-0.00,-1.81,9.91
-1.84,-9.75,0.23,9.93,-9.70,0.00,-1.84,9.87
-1.79,-9.65,0.05,9.82,-9.76,-0.01,-1.87,9.94
-1.75,-9.70,0.16,9.86,-9.68,-0.09,-1.84,9.86
-1.65,-9.71,0.05,9.85,-9.71,-0.07,-1.85,9.88
-1.66,-9.63,0.05,9.77,-9.64,-0.11,-1.91,9.83
-1.65,-9.62,0.04,9.76,-9.60,-0.11,-1.93,9.80
-1.71,-9.65,0.02,9.80,-9.61,-0.07,-1.86,9.79
-1.75,-9.64,0.05,9.80,-9.67,-0.06,-1.92,9.86
-1.74,-9.68,0.01,9.83,-9.66,-0.03,-1.95,9.86
-1.68,-9.49,-0.10,9.64,-9.62,-0.06,-1.93,9.81
-1.76,-9.66,0.25,9.82,-9.65,-0.03,-1.94,9.84
-1.73,-9.66,-0.01,9.81,-9.68,-0.03,-1.95,9.87
-1.69,-9.61,-0.10,9.76,-9.59,-0.01,-2.05,9.80
-1.72,-9.63,-0.06,9.78,-9.59,0.00,-2.05,9.81
-1.71,-9.63,-0.07,9.78,-9.61,-0.01,-2.09,9.84
-1.76,-9.63,-0.05,9.79,-9.58,-0.01,-2.01,9.78
-1.79,-9.69,-0.07,9.85,-9.71,-0.02,-2.05,9.92
-1.81,-9.60,-0.05,9.77,-9.71,-0.03,-1.99,9.91
-1.86,-9.74,0.07,9.91,-9.74,-0.07,-1.99,9.94
-1.85,-9.68,-0.03,9.85,-9.76,-0.04,-2.00,9.96
-1.85,-9.72,0.01,9.90,-9.78,-0.09,-2.05,10.00
-1.83,-9.72,0.05,9.89,-9.70,-0.06,-2.12,9.93
-1.77,-9.70,0.05,9.86,-9.65,-0.07,-2.12,9.88
-1.74,-9.68,0.04,9.83,-9.59,-0.04,-2.08,9.81
-1.72,-9.64,-0.03,9.79,-9.59,0.00,-2.09,9.82
-1.72,-9.62,-0.01,9.77,-9.64,0.08,-1.98,9.84
-1.73,-9.58,-0.00,9.74,-9.67,0.04,-1.93,9.86
-1.77,-9.57,-0.00,9.74,-9.65,-0.01,-2.01,9.86
-1.81,-9.59,0.02,9.76,-9.66,-0.04,-1.94,9.85
-1.84,-9.65,0.08,9.82,-9.64,-0.10,-2.04,9.86
-1.85,-9.67,0.10,9.85,-9.63,-0.13,-2.04,9.85
-1.84,-9.63,0.12,9.80,-9.58,-0.18,-2.07,9.81
-1.76,-9.61,0.08,9.77,-9.54,-0.16,-2.08,9.76
-1.67,-9.60,0.10,9.74,-9.56,-0.13,-2.13,9.80
-1.58,-9.59,0.06,9.72,-9.55,-0.13,-2.07,9.77
-1.56,-9.58,0.08,9.71,-9.61,-0.13,-2.08,9.83
-1.53,-9.63,0.09,9.75,-9.62,-0.08,-2.09,9.85
-1.57,-9.69,0.07,9.81,-9.67,-0.07,-2.02,9.88
-1.64,-9.72,0.07,9.86,-9.76,-0.03,-2.01,9.96
-1.76,-9.76,0.06,9.92,-9.80,-0.05,-2.01,10.00
-1.81,-9.76,0.04,9.93,-9.83,-0.07,-2.02,10.04
-1.91,-9.76,0.03,9.95,-9.85,-0.07,-2.02,10.05
-1.90,-9.73,-0.00,9.91,-9.77,-0.12,-1.97,9.97
-1.86,-9.76,0.08,9.93,-9.75,-0.11,-2.11,9.98
-1.83,-9.77,0.11,9.94,-9.65,-0.12,-2.04,9.86
-1.76,-9.66,0.11,9.82,-9.56,-0.14,-2.11,9.79
-1.65,-9.57,0.15,9.71,-9.51,-0.07,-2.07,9.73
-1.63,-9.55,0.21,9.69,-9.49,-0.03,-2.07,9.71
-1.62,-9.54,0.07,9.68,-9.52,0.00,-2.00,9.73
-1.69,-9.54,0.21,9.69,-9.56,0.01,-2.05,9.78
-1.72,-9.56,0.16,9.72,-9.57,-0.03,-1.95,9.77
-1.78,-9.63,0.18,9.79,-9.63,-0.11,-2.11,9.86
-1.72,-9.66,0.28,9.81,-9.59,-0.18,-2.06,9.81
-1.71,-9.67,0.23,9.82,-9.56,-0.17,-1.97,9.76
-1.64,-9.54,0.07,9.68,-9.61,-0.17,-2.20,9.86
-1.64,-9.72,0.03,9.86,-9.62,-0.12,-1.94,9.82
-1.58,-9.70,0.07,9.83,-9.72,-0.09,-2.07,9.93
-1.66,-9.74,0.17,9.88,-9.72,-0.08,-2.18,9.96
-1.77,-9.75,0.24,9.91,-9.71,-0.13,-2.08,9.93
-1.81,-9.71,0.27,9.89,-9.81,-0.07,-2.07,10.02
-1.88,-9.73,0.11,9.91,-9.84,-0.10,-2.00,10.05
-1.92,-9.77,0.04,9.95,-9.81,-0.10,-1.99,10.01
-1.99,-9.90,0.25,10.10,-9.80,-0.04,-1.99,10.00
-1.93,-9.77,0.09,9.96,-9.75,-0.05,-2.06,9.97
-1.82,-9.77,0.11,9.94,-9.60,-0.05,-2.17,9.84
-1.66,-9.59,0.25,9.73,-9.48,-0.03,-2.14,9.72
-1.55,-9.56,0.16,9.68,-9.49,0.01,-2.11,9.72
-1.52,-9.51,0.16,9.64,-9.41,-0.04,-2.19,9.66
-1.55,-9.44,0.11,9.56,-9.39,-0.02,-2.12,9.63
-1.58,-9.45,0.10,9.58,-9.49,-0.06,-2.06,9.71
-1.68,-9.49,0.22,9.64,-9.51,-0.13,-2.09,9.74
-1.77,-9.59,0.18,9.75,-9.60,-0.12,-2.05,9.82
-1.78,-9.64,0.12,9.81,-9.66,-0.10,-2.06,9.88
-1.84,-9.69,0.13,9.87,-9.73,-0.07,-2.08,9.95
-1.87,-9.70,0.13,9.88,-9.73,-0.02,-2.12,9.96
-1.86,-9.71,0.11,9.89,-9.74,0.02,-2.12,9.96
-1.84,-9.70,0.11,9.87,-9.71,0.00,-2.13,9.94
-1.84,-9.71,0.17,9.88,-9.65,-0.10,-2.16,9.89
-1.72,-9.69,0.18,9.85,-9.63,-0.11,-2.10,9.86
-1.67,-9.68,0.15,9.82,-9.58,-0.09,-2.07,9.80
-1.68,-9.68,0.22,9.82,-9.64,-0.09,-2.20,9.89
-1.65,-9.68,0.20,9.82,-9.60,-0.11,-2.09,9.83
-1.67,-9.62,0.13,9.77,-9.64,-0.05,-2.05,9.85
-1.72,-9.61,0.13,9.76,-9.64,-0.11,-2.10,9.86
-1.72,-9.54,0.16,9.69,-9.63,-0.10,-2.14,9.86
-1.79,-9.71,0.26,9.88,-9.62,-0.09,-2.08,9.84
-1.74,-9.67,0.06,9.82,-9.62,-0.01,-2.07,9.84
-1.71,-9.64,-0.03,9.79,-9.67,-0.03,-2.14,9.90
-1.77,-9.69,0.02,9.85,-9.68,-0.02,-2.17,9.92
-1.80,-9.65,0.05,9.82,-9.72,-0.02,-2.18,9.96
-1.78,-9.69,0.04,9.85,-9.66,-0.04,-2.15,9.90
-1.78,-9.69,0.09,9.86,-9.63,-0.04,-2.15,9.87
-1.74,-9.70,0.09,9.85,-9.60,-0.04,-2.20,9.85
-1.79,-9.65,0.24,9.81,-9.62,-0.02,-2.21,9.87
-1.84,-9.63,0.30,9.81,-9.59,0.01,-2.11,9.82
-1.81,-9.59,0.28,9.76,-9.62,0.04,-2.07,9.84
-1.85,-9.57,0.22,9.75,-9.67,0.04,-2.10,9.90
-1.88,-9.59,0.23,9.78,-9.65,0.01,-2.08,9.88
-1.81,-9.59,0.25,9.76,-9.62,-0.02,-2.06,9.84
-1.80,-9.59,0.23,9.76,-9.61,-0.04,-2.03,9.82
-1.80,-9.60,0.26,9.77,-9.63,-0.08,-2.04,9.85
-1.78,-9.61,0.25,9.78,-9.61,-0.08,-2.06,9.83
-1.75,-9.64,0.22,9.80,-9.59,-0.09,-2.07,9.81
-1.71,-9.65,0.22,9.80,-9.61,-0.10,-2.09,9.84
-1.69,-9.67,0.16,9.81,-9.66,-0.10,-2.05,9.88
-1.71,-9.68,0.17,9.83,-9.64,-0.09,-2.06,9.86
-1.73,-9.67,0.12,9.83,-9.66,-0.08,-2.02,9.87
-1.72,-9.66,0.18,9.81,-9.66,-0.06,-2.06,9.88
-1.81,-9.69,0.20,9.86,-9.67,-0.01,-2.07,9.89
-1.80,-9.68,0.21,9.85,-9.68,0.01,-2.09,9.91
-1.80,-9.66,0.16,9.83,-9.67,0.00,-2.11,9.89
-1.84,-9.62,0.12,9.80,-9.64,0.03,-2.13,9.87
-1.82,-9.62,0.09,9.79,-9.63,0.01,-2.13,9.86
-1.81,-9.64,0.08,9.81,-9.65,0.01,-2.11,9.88
-1.82,-9.65,0.11,9.82,-9.65,-0.04,-2.10,9.87
-1.79,-9.67,0.14,9.83,-9.66,-0.07,-2.16,9.90
-1.80,-9.71,0.19,9.87,-9.66,-0.06,-2.10,9.88
-1.82,-9.72,0.13,9.89,-9.62,-0.09,-2.18,9.86
-1.76,-9.67,0.12,9.83,-9.60,-0.06,-2.15,9.84
-1.76,-9.65,0.12,9.81,-9.60,-0.07,-2.18,9.85
-1.75,-9.62,0.09,9.78,-9.52,-0.06,-2.20,9.77
-1.70,-9.56,0.05,9.71,-9.49,-0.04,-2.16,9.73
-1.69,-9.57,0.06,9.71,-9.53,-0.01,-2.19,9.77
-1.75,-9.62,0.09,9.78,-9.56,-0.00,-2.24,9.82
-1.77,-9.64,0.25,9.80,-9.60,-0.01,-2.24,9.85
-1.81,-9.61,0.20,9.78,-9.55,0.00,-2.08,9.77
-1.79,-9.55,0.04,9.72,-9.62,0.04,-2.18,9.86
-1.87,-9.69,-0.00,9.87,-9.68,0.05,-2.16,9.92
-1.87,-9.69,0.15,9.87,-9.68,0.06,-2.08,9.90
-1.88,-9.63,0.16,9.82,-9.69,0.06,-2.16,9.93
-1.93,-9.65,0.21,9.84,-9.60,0.09,-2.16,9.85
-1.92,-9.61,0.18,9.80,-9.59,0.12,-2.17,9.83
-1.90,-9.54,0.11,9.73,-9.61,0.13,-2.12,9.84
-1.88,-9.60,0.03,9.78,-9.60,0.09,-2.10,9.82
-1.86,-9.64,0.03,9.82,-9.59,0.07,-2.12,9.82
-1.83,-9.65,0.08,9.82,-9.61,0.07,-2.12,9.84
-1.76,-9.64,0.11,9.80,-9.64,0.03,-2.10,9.86
-1.71,-9.64,0.02,9.79,-9.64,0.00,-2.07,9.86
-1.72,-9.60,0.04,9.76,-9.60,-0.02,-2.07,9.82
-1.77,-9.65,0.18,9.81,-9.63,-0.04,-2.04,9.84
-1.77,-9.68,0.14,9.84,-9.64,-0.05,-2.03,9.85
-1.81,-9.67,0.15,9.84,-9.63,-0.04,-2.01,9.84
-1.82,-9.63,0.17,9.81,-9.61,-0.05,-2.02,9.82
-1.80,-9.61,0.20,9.78,-9.63,-0.03,-2.01,9.84
-1.78,-9.54,0.15,9.71,-9.65,-0.02,-2.04,9.86
-1.77,-9.63,0.07,9.80,-9.66,0.02,-2.04,9.87
-1.76,-9.61,0.17,9.77,-9.65,-0.02,-2.07,9.87
-1.79,-9.65,-0.01,9.81,-9.69,-0.02,-2.07,9.91
-1.79,-9.66,0.05,9.83,-9.69,0.00,-2.07,9.91
-1.82,-9.67,0.02,9.84,-9.70,0.01,-2.10,9.92
-1.80,-9.67,0.03,9.84,-9.70,-0.01,-2.07,9.92
-1.82,-9.69,0.07,9.86,-9.67,-0.02,-2.04,9.88
-1.83,-9.67,-0.00,9.84,-9.70,-0.00,-2.18,9.94
-1.87,-9.72,0.16,9.90,-9.66,-0.03,-2.05,9.87
-1.83,-9.68,0.10,9.85,-9.69,-0.03,-2.07,9.91
-1.82,-9.61,0.13,9.78,-9.65,-0.06,-2.02,9.86
-1.81,-9.63,0.16,9.80,-9.61,-0.04,-2.10,9.83
-1.82,-9.61,0.17,9.79,-9.62,0.01,-2.10,9.85
-1.81,-9.60,0.06,9.77,-9.61,-0.01,-2.05,9.83
-1.80,-9.65,0.06,9.81,-9.59,-0.01,-2.02,9.80
-1.79,-9.58,0.07,9.74,-9.64,-0.04,-2.04,9.85
-1.76,-9.61,0.11,9.77,-9.63,-0.02,-2.05,9.84
-1.74,-9.59,-0.07,9.75,-9.62,-0.01,-2.07,9.84
-1.76,-9.61,0.05,9.77,-9.59,-0.01,-2.05,9.80
-1.79,-9.62,0.09,9.79,-9.64,0.02,-2.05,9.85
-1.80,-9.65,0.07,9.81,-9.62,-0.00,-2.06,9.84
-1.76,-9.62,0.11,9.78,-9.64,-0.02,-2.07,9.86
-1.81,-9.66,0.10,9.83,-9.66,-0.01,-2.03,9.88
-1.77,-9.58,-0.11,9.74,-9.66,-0.01,-2.02,9.87
-1.78,-9.66,0.07,9.82,-9.68,-0.04,-2.02,9.89
-1.78,-9.66,0.07,9.82,-9.64,-0.07,-2.00,9.85
-1.76,-9.68,0.08,9.84,-9.68,-0.04,-2.03,9.89
-1.79,-9.68,0.08,9.85,-9.66,-0.03,-2.03,9.87
-1.81,-9.64,0.08,9.81,-9.68,-0.03,-2.06,9.90
-1.80,-9.68,0.09,9.84,-9.66,-0.03,-2.03,9.87
-1.78,-9.65,0.12,9.82,-9.67,-0.03,-2.06,9.89
-1.80,-9.66,0.08,9.82,-9.64,-0.04,-2.03,9.85
-1.77,-9.65,0.05,9.81,-9.66,-0.03,-2.04,9.87
-1.80,-9.66,0.06,9.83,-9.63,-0.00,-2.05,9.84
-1.80,-9.63,0.09,9.80,-9.60,-0.04,-2.07,9.82
-1.78,-9.58,0.10,9.75,-9.61,-0.03,-2.07,9.83
-1.80,-9.66,0.16,9.82,-9.64,-0.02,-2.07,9.86
-1.77,-9.65,0.08,9.81,-9.64,0.00,-2.03,9.85
-1.78,-9.63,0.05,9.80,-9.65,-0.05,-2.03,9.86
-1.78,-9.64,0.03,9.80,-9.64,-0.05,-2.05,9.86
-1.79,-9.65,0.08,9.81,-9.65,-0.05,-2.07,9.86
-1.80,-9.67,0.08,9.83,-9.66,-0.02,-2.05,9.87
-1.78,-9.64,0.11,9.80,-9.64,-0.02,-2.05,9.85
-1.80,-9.66,-0.06,9.83,-9.68,-0.00,-2.04,9.89
-1.84,-9.67,0.09,9.85,-9.66,0.00,-2.03,9.87
-1.84,-9.65,0.04,9.82,-9.67,0.01,-2.05,9.88
-1.84,-9.65,0.07,9.82,-9.65,-0.00,-2.02,9.86
-1.85,-9.66,0.03,9.83,-9.64,0.02,-2.08,9.86
-1.83,-9.66,0.06,9.83,-9.64,-0.01,-2.04,9.85
-1.78,-9.67,0.03,9.83,-9.64,0.01,-2.03,9.85
-1.79,-9.67,0.03,9.83,-9.66,-0.03,-2.03,9.87
-1.86,-9.71,0.13,9.89,-9.67,-0.02,-2.12,9.90
-1.81,-9.67,0.25,9.85,-9.64,-0.02,-2.00,9.85
-1.77,-9.54,0.04,9.70,-9.60,-0.03,-1.98,9.81
-1.68,-9.57,-0.06,9.72,-9.65,-0.03,-2.15,9.89
-1.76,-9.67,0.02,9.83,-9.59,-0.06,-1.94,9.78
-1.72,-9.68,-0.03,9.83,-9.64,-0.02,-2.02,9.85
-1.77,-9.69,0.11,9.85,-9.67,-0.02,-2.15,9.91
-1.82,-9.66,0.19,9.84,-9.63,-0.03,-2.11,9.86
-1.78,-9.59,0.13,9.75,-9.65,-0.05,-2.01,9.86
-1.78,-9.55,0.04,9.72,-9.60,-0.01,-2.04,9.81
-1.78,-9.56,-0.02,9.72,-9.61,-0.03,-2.09,9.83
-1.85,-9.64,0.00,9.81,-9.63,-0.01,-2.09,9.86
-1.78,-9.65,0.05,9.81,-9.67,-0.01,-2.09,9.89
-1.78,-9.69,0.06,9.85,-9.70,-0.03,-2.07,9.92
-1.77,-9.67,0.06,9.83,-9.70,-0.03,-2.07,9.92
-1.76,-9.68,0.02,9.84,-9.72,-0.02,-2.04,9.93
-1.83,-9.68,0.04,9.85,-9.66,-0.02,-2.03,9.87
-1.80,-9.64,0.03,9.80,-9.66,0.01,-1.98,9.86
-1.81,-9.63,0.02,9.80,-9.64,-0.01,-2.05,9.86
-1.81,-9.61,0.04,9.78,-9.66,-0.02,-2.00,9.86
-1.82,-9.65,0.01,9.82,-9.65,-0.02,-2.01,9.86
-1.81,-9.64,0.04,9.81,-9.63,-0.03,-1.98,9.83
-1.78,-9.63,0.03,9.79,-9.66,-0.02,-1.99,9.86
-1.75,-9.64,0.05,9.79,-9.66,-0.06,-2.04,9.87
-1.81,-9.64,0.05,9.80,-9.65,-0.04,-1.99,9.85
-1.79,-9.62,0.04,9.79,-9.63,-0.00,-2.04,9.84
-1.78,-9.63,0.03,9.79,-9.66,-0.03,-2.01,9.86
-1.82,-9.64,0.06,9.81,-9.65,0.02,-2.04,9.86
-1.75,-9.68,0.08,9.84,-9.67,-0.01,-2.02,9.88
-1.82,-9.65,0.05,9.82,-9.63,0.01,-2.02,9.84
-1.82,-9.64,0.05,9.81,-9.67,-0.02,-2.09,9.90
-1.80,-9.71,0.10,9.87,-9.70,-0.03,-2.00,9.91
-1.76,-9.66,0.08,9.82,-9.68,-0.05,-2.04,9.90
-1.78,-9.61,0.03,9.77,-9.62,-0.04,-2.02,9.83
-1.79,-9.59,0.01,9.75,-9.58,-0.02,-2.08,9.80
-1.81,-9.64,0.03,9.81,-9.66,-0.02,-2.04,9.87
-1.78,-9.64,0.05,9.80,-9.65,0.02,-2.05,9.87
-1.78,-9.62,0.04,9.79,-9.63,0.01,-2.02,9.84
-1.76,-9.62,0.00,9.78,-9.64,-0.02,-1.98,9.84
-1.72,-9.50,-0.17,9.66,-9.68,-0.02,-2.00,9.88
-1.80,-9.68,-0.09,9.85,-9.64,0.00,-2.02,9.85
-1.79,-9.68,0.04,9.85,-9.64,-0.02,-2.05,9.85
-1.80,-9.68,0.04,9.85,-9.65,-0.02,-2.01,9.86
-1.80,-9.68,0.04,9.84,-9.66,-0.01,-2.02,9.87
-1.81,-9.65,0.01,9.82,-9.66,-0.02,-2.06,9.88
-1.80,-9.64,0.03,9.80,-9.64,-0.02,-2.04,9.86
-1.79,-9.62,0.05,9.79,-9.64,-0.03,-2.02,9.85
-1.76,-9.63,-0.01,9.79,-9.60,-0.02,-2.02,9.82
-1.77,-9.63,0.01,9.79,-9.65,-0.03,-2.03,9.86
-1.77,-9.62,-0.00,9.78,-9.67,-0.04,-2.04,9.88
-1.79,-9.66,0.03,9.82,-9.63,-0.05,-2.06,9.85
-1.81,-9.66,0.02,9.83,-9.64,-0.01,-2.03,9.85
-1.79,-9.67,0.04,9.83,-9.67,-0.02,-2.02,9.87
-1.78,-9.66,0.03,9.82,-9.65,0.01,-2.05,9.87
-1.76,-9.64,0.05,9.80,-9.64,-0.00,-2.02,9.85
-1.78,-9.63,0.06,9.79,-9.64,-0.03,-2.03,9.85
-1.79,-9.63,0.04,9.79,-9.63,-0.02,-2.04,9.85
-1.77,-9.65,0.03,9.81,-9.66,0.01,-2.05,9.88
-1.82,-9.64,0.04,9.81,-9.65,-0.01,-2.03,9.86
-1.78,-9.65,0.04,9.81,-9.65,-0.03,-2.00,9.85
-1.80,-9.63,0.07,9.80,-9.65,-0.00,-2.02,9.86
-1.77,-9.67,0.05,9.83,-9.63,-0.03,-2.04,9.84
-1.78,-9.59,0.04,9.76,-9.64,-0.01,-2.01,9.84
-1.78,-9.61,0.01,9.78,-9.65,-0.02,-2.01,9.85
-1.78,-9.62,0.03,9.79,-9.65,-0.05,-2.02,9.86
-1.80,-9.66,0.03,9.82,-9.65,0.02,-2.03,9.86
-1.81,-9.64,0.01,9.81,-9.64,-0.01,-2.02,9.85
-1.80,-9.64,0.02,9.81,-9.67,0.00,-2.03,9.88
-1.78,-9.65,0.02,9.82,-9.65,-0.01,-2.06,9.87
-1.80,-9.66,-0.01,9.83,-9.63,0.00,-2.02,9.84
-1.79,-9.64,0.00,9.81,-9.64,0.00,-2.02,9.85
-1.79,-9.63,0.04,9.79,-9.64,-0.01,-2.03,9.85
-1.76,-9.65,0.05,9.81,-9.65,-0.01,-2.05,9.87
-1.79,-9.64,0.02,9.80,-9.66,-0.02,-2.04,9.88
-1.79,-9.66,0.01,9.82,-9.65,-0.02,-2.03,9.86
-1.81,-9.66,-0.00,9.83,-9.66,-0.02,-2.04,9.87
-1.78,-9.67,-0.01,9.83,-9.67,-0.02,-2.03,9.88
-1.74,-9.65,0.02,9.80,-9.67,-0.06,-2.03,9.88
-1.81,-9.66,0.01,9.82,-9.68,-0.01,-2.04,9.89
-1.87,-9.72,0.11,9.90,-9.71,0.00,-2.09,9.93
-1.84,-9.69,0.23,9.87,-9.65,0.00,-1.99,9.86
-1.80,-9.60,0.07,9.76,-9.64,-0.02,-1.98,9.84
-1.72,-9.55,-0.08,9.70,-9.69,-0.01,-2.15,9.92
-1.79,-9.70,0.01,9.86,-9.61,0.01,-1.91,9.80
-1.75,-9.64,-0.08,9.80,-9.63,-0.03,-2.01,9.84
-1.82,-9.67,0.07,9.84,-9.66,-0.01,-2.13,9.89
-1.84,-9.63,0.14,9.81,-9.61,-0.00,-2.13,9.85
-1.80,-9.54,0.08,9.71,-9.58,-0.02,-2.02,9.79
-1.77,-9.56,0.00,9.73,-9.60,0.00,-2.05,9.82
-1.81,-9.60,-0.03,9.77,-9.60,0.01,-2.10,9.83
-1.81,-9.62,0.00,9.78,-9.63,0.02,-2.05,9.84
-1.79,-9.66,0.01,9.82,-9.68,0.00,-2.07,9.90
-1.78,-9.66,-0.02,9.82,-9.65,0.00,-2.03,9.86
-1.78,-9.83,0.08,9.99,-9.71,-0.00,-1.99,9.92
-1.79,-9.71,-0.04,9.87,-9.69,-0.01,-1.99,9.89
-1.82,-9.70,0.06,9.87,-9.68,-0.01,-1.98,9.88
-1.81,-9.58,0.10,9.75,-9.65,-0.00,-2.00,9.86
-1.84,-9.56,-0.02,9.73,-9.64,0.00,-2.01,9.84
-1.78,-9.64,0.03,9.80,-9.64,-0.00,-1.98,9.84
-1.79,-9.64,0.02,9.81,-9.64,-0.01,-1.96,9.83
-1.82,-9.62,-0.01,9.79,-9.64,0.01,-2.00,9.85
-1.76,-9.62,0.04,9.78,-9.66,-0.01,-2.00,9.87
-1.78,-9.63,0.04,9.80,-9.63,-0.03,-2.02,9.84
-1.79,-9.65,-0.01,9.81,-9.65,-0.03,-2.04,9.87
-1.81,-9.64,0.02,9.81,-9.64,-0.02,-2.02,9.85
-1.82,-9.64,0.00,9.81,-9.63,-0.03,-2.06,9.85
-1.81,-9.65,-0.01,9.82,-9.65,0.01,-1.97,9.85
-1.77,-9.68,0.03,9.84,-9.73,-0.05,-1.91,9.91
-1.79,-9.62,-0.02,9.79,-9.68,-0.05,-2.03,9.89
-1.83,-9.68,0.02,9.85,-9.67,-0.01,-2.00,9.88
-1.81,-9.71,0.07,9.88,-9.70,-0.00,-1.96,9.89
-1.79,-9.67,0.04,9.83,-9.67,-0.02,-2.01,9.88
-1.79,-9.62,-0.01,9.79,-9.62,-0.05,-2.02,9.83
-1.81,-9.63,0.00,9.80,-9.63,-0.02,-2.01,9.84
-1.85,-9.64,0.00,9.81,-9.67,0.01,-2.00,9.87
-1.80,-9.63,0.02,9.80,-9.66,0.06,-2.04,9.88
-1.77,-9.62,-0.00,9.78,-9.65,0.02,-2.03,9.86
-1.76,-9.64,-0.01,9.80,-9.65,0.00,-1.99,9.85
-1.75,-9.66,-0.01,9.82,-9.66,-0.01,-1.99,9.86
-1.78,-9.66,0.02,9.82,-9.63,-0.01,-1.98,9.83
-1.79,-9.66,-0.00,9.82,-9.64,-0.00,-2.03,9.86
-1.78,-9.66,0.01,9.82,-9.65,0.01,-1.99,9.86
-1.78,-9.65,0.01,9.81,-9.66,0.02,-2.01,9.87
-1.78,-9.65,0.00,9.81,-9.66,-0.02,-2.00,9.86
-1.78,-9.64,-0.00,9.80,-9.63,0.01,-2.03,9.84
-1.78,-9.66,0.04,9.82,-9.67,-0.02,-2.02,9.88
-1.78,-9.62,0.00,9.79,-9.67,0.00,-2.00,9.88
-1.78,-9.63,-0.01,9.80,-9.66,0.02,-1.98,9.87
-1.81,-9.63,-0.01,9.80,-9.67,0.01,-1.99,9.87
-1.79,-9.67,-0.01,9.84,-9.67,-0.00,-2.02,9.88
-1.78,-9.65,-0.20,9.81,-9.69,0.02,-2.00,9.90
-1.78,-9.58,-0.09,9.74,-9.65,0.01,-1.99,9.86
-1.81,-9.68,0.04,9.85,-9.64,-0.01,-2.02,9.85
-1.78,-9.66,0.05,9.82,-9.67,-0.00,-1.97,9.87
-1.78,-9.64,0.05,9.81,-9.64,-0.01,-1.98,9.84
-1.77,-9.65,0.03,9.81,-9.65,-0.00,-2.03,9.87
-1.80,-9.65,0.04,9.81,-9.64,0.01,-1.97,9.84
-1.79,-9.63,0.03,9.80,-9.66,0.02,-1.99,9.86
-1.79,-9.64,0.02,9.81,-9.67,-0.00,-1.97,9.87
-1.78,-9.64,0.00,9.80,-9.65,-0.02,-1.96,9.84
-1.80,-9.66,0.02,9.82,-9.64,-0.01,-1.98,9.85
-1.81,-9.66,0.01,9.83,-9.66,0.01,-1.99,9.86
-1.78,-9.65,0.04,9.82,-9.65,0.01,-2.01,9.86
-1.80,-9.62,0.03,9.79,-9.64,-0.01,-1.96,9.84
-1.78,-9.64,0.02,9.80,-9.65,0.01,-2.02,9.86
-1.79,-9.62,0.01,9.79,-9.66,0.01,-1.97,9.86
-1.80,-9.63,0.01,9.80,-9.67,0.01,-1.99,9.87
-1.81,-9.66,-0.00,9.82,-9.69,0.00,-1.96,9.88
-1.81,-9.67,0.00,9.84,-9.68,0.00,-2.01,9.89
-1.80,-9.67,-0.02,9.83,-9.68,0.01,-1.99,9.88
-1.79,-9.66,-0.02,9.82,-9.66,-0.02,-2.01,9.87
-1.80,-9.68,-0.01,9.84,-9.69,-0.00,-2.00,9.89
-1.78,-9.67,0.03,9.83,-9.68,0.02,-1.99,9.88
-1.79,-9.67,0.02,9.83,-9.65,0.01,-1.97,9.85
-1.80,-9.68,0.03,9.84,-9.63,0.00,-2.00,9.83
-1.81,-9.65,0.01,9.82,-9.66,0.03,-2.03,9.87
-1.79,-9.65,0.00,9.82,-9.63,0.02,-2.01,9.84
-1.78,-9.66,0.01,9.83,-9.66,0.02,-2.01,9.86
-1.78,-9.66,0.02,9.82,-9.63,-0.01,-2.05,9.85
-1.77,-9.63,0.01,9.79,-9.64,0.02,-2.01,9.85
-1.76,-9.65,0.00,9.81,-9.66,0.01,-2.03,9.87
-1.84,-9.69,0.08,9.87,-9.66,0.01,-2.08,9.88
-1.82,-9.72,0.15,9.89,-9.65,-0.02,-1.96,9.84
-1.83,-9.66,0.10,9.84,-9.65,0.00,-1.98,9.85
-1.75,-9.60,-0.10,9.75,-9.70,-0.01,-2.19,9.94
-1.76,-9.74,-0.06,9.89,-9.64,-0.02,-1.93,9.83
-1.75,-9.66,-0.08,9.82,-9.66,-0.02,-2.03,9.87
-1.80,-9.70,0.05,9.86,-9.66,-0.04,-2.13,9.89
-1.83,-9.68,0.18,9.85,-9.64,-0.02,-2.04,9.85
-1.80,-9.62,0.15,9.78,-9.64,-0.00,-2.04,9.86
-1.79,-9.60,0.04,9.77,-9.61,0.00,-1.97,9.81
-1.80,-9.60,0.01,9.76,-9.63,0.01,-2.04,9.84
-1.83,-9.66,0.01,9.84,-9.63,0.05,-2.04,9.84
-1.79,-9.63,0.05,9.79,-9.70,0.04,-2.05,9.92
-1.76,-9.68,0.02,9.84,-9.71,0.02,-2.05,9.92
-1.75,-9.70,0.03,9.85,-9.71,0.01,-2.04,9.93
-1.77,-9.69,0.04,9.85,-9.69,-0.03,-2.02,9.90
-1.81,-9.80,0.21,9.97,-9.68,-0.06,-2.07,9.90
-1.82,-9.64,0.18,9.81,-9.63,0.01,-2.01,9.84
-1.84,-9.72,0.19,9.89,-9.63,-0.01,-2.07,9.85
-1.77,-9.58,-0.04,9.74,-9.64,0.01,-2.06,9.86
-1.75,-9.59,0.07,9.74,-9.57,-0.00,-2.04,9.78
-1.77,-9.59,0.05,9.75,-9.61,0.01,-2.05,9.83
-1.75,-9.58,0.05,9.74,-9.61,-0.04,-2.01,9.82
-1.76,-9.63,0.06,9.79,-9.61,-0.02,-2.09,9.84
-1.72,-9.65,0.06,9.81,-9.62,-0.04,-2.08,9.85
-1.75,-9.68,0.08,9.83,-9.66,-0.01,-2.06,9.88
-1.77,-9.67,0.08,9.83,-9.65,-0.02,-2.06,9.87
-1.84,-9.67,0.05,9.84,-9.66,-0.03,-2.05,9.88
-1.73,-9.66,0.07,9.81,-9.68,-0.02,-2.03,9.89
-1.79,-9.64,0.01,9.80,-9.68,-0.03,-2.04,9.89
-1.85,-9.73,-0.02,9.90,-9.67,-0.03,-2.17,9.91
-1.79,-9.63,0.04,9.79,-9.67,-0.06,-2.05,9.89
-1.76,-9.65,0.20,9.81,-9.64,-0.09,-2.07,9.86
-1.80,-9.60,0.14,9.77,-9.61,-0.04,-2.07,9.83
-1.80,-9.65,0.07,9.82,-9.63,-0.03,-2.10,9.86
-1.81,-9.64,0.05,9.80,-9.59,-0.02,-2.09,9.82
-1.77,-9.62,0.12,9.78,-9.64,-0.03,-2.10,9.87
-1.73,-9.61,-0.01,9.76,-9.59,-0.02,-2.02,9.80
-1.72,-9.64,0.07,9.79,-9.63,-0.03,-2.07,9.84
-1.76,-9.68,0.10,9.84,-9.62,-0.05,-2.09,9.85
-1.79,-9.71,0.10,9.87,-9.67,-0.04,-2.11,9.90
-1.78,-9.63,0.15,9.80,-9.65,-0.04,-2.14,9.88
-1.77,-9.66,0.14,9.82,-9.65,-0.07,-2.13,9.88
-1.79,-9.67,0.09,9.83,-9.63,-0.04,-2.13,9.87
-1.74,-9.64,0.08,9.79,-9.63,-0.05,-2.12,9.86
-1.76,-9.64,0.19,9.80,-9.65,-0.08,-2.13,9.88
-1.74,-9.67,0.10,9.82,-9.62,-0.08,-2.14,9.86
-1.70,-9.68,0.17,9.83,-9.61,-0.07,-2.12,9.84
-1.73,-9.66,0.19,9.82,-9.64,-0.05,-2.13,9.87
-1.74,-9.67,0.14,9.83,-9.64,-0.06,-2.11,9.87
-1.73,-9.63,0.16,9.79,-9.67,-0.06,-2.12,9.90
-1.76,-9.67,0.12,9.83,-9.66,-0.07,-2.14,9.89
-1.77,-9.66,0.11,9.82,-9.65,-0.07,-2.12,9.88
-1.79,-9.67,0.15,9.84,-9.64,-0.06,-2.13,9.87
-1.75,-9.64,0.08,9.80,-9.61,-0.08,-2.13,9.84
-1.75,-9.60,0.16,9.76,-9.62,-0.06,-2.16,9.86
-1.77,-9.66,0.16,9.82,-9.59,-0.07,-2.17,9.84
-1.72,-9.60,0.17,9.75,-9.62,-0.10,-2.17,9.86
-1.72,-9.64,0.10,9.79,-9.61,-0.09,-2.15,9.85
-1.74,-9.64,0.15,9.80,-9.58,-0.10,-2.18,9.83
-1.75,-9.64,0.08,9.79,-9.63,-0.11,-2.13,9.86
-1.75,-9.64,0.15,9.80,-9.63,-0.11,-2.15,9.87
-1.77,-9.64,0.21,9.81,-9.60,-0.08,-2.16,9.84
-1.73,-9.65,0.21,9.80,-9.64,-0.08,-2.18,9.88
-1.76,-9.69,0.13,9.85,-9.64,-0.11,-2.15,9.87
-1.76,-9.66,0.17,9.82,-9.64,-0.08,-2.16,9.88
-1.73,-9.69,0.19,9.84,-9.65,-0.09,-2.15,9.88
-1.77,-9.67,0.11,9.83,-9.62,-0.09,-2.15,9.86
-1.74,-9.63,0.11,9.79,-9.62,-0.10,-2.15,9.86
-1.76,-9.66,0.10,9.82,-9.64,-0.10,-2.17,9.88
-1.74,-9.66,0.20,9.81,-9.61,-0.11,-2.18,9.85
-1.76,-9.66,0.24,9.82,-9.62,-0.08,-2.17,9.86
-1.75,-9.65,0.26,9.81,-9.60,-0.09,-2.19,9.85
-1.74,-9.62,0.15,9.78,-9.59,-0.09,-2.17,9.83
-1.75,-9.63,0.14,9.79,-9.62,-0.11,-2.17,9.86
-1.74,-9.64,0.13,9.79,-9.57,-0.11,-2.17,9.82
-1.75,-9.66,0.17,9.82,-9.62,-0.10,-2.18,9.87
-1.72,-9.67,0.19,9.82,-9.60,-0.10,-2.16,9.84
-1.71,-9.64,0.03,9.79,-9.61,-0.10,-2.18,9.85
-1.75,-9.68,0.17,9.84,-9.63,-0.09,-2.24,9.89
-1.74,-9.68,0.25,9.84,-9.63,-0.11,-2.23,9.89
-1.76,-9.64,0.29,9.80,-9.59,-0.14,-2.12,9.83
-1.77,-9.62,0.23,9.79,-9.58,-0.12,-2.18,9.83
-1.71,-9.62,0.13,9.77,-9.62,-0.10,-2.19,9.87
-1.66,-9.66,0.15,9.80,-9.62,-0.12,-2.17,9.86
-1.68,-9.63,0.15,9.78,-9.64,-0.12,-2.26,9.90
-1.76,-9.63,0.19,9.80,-9.57,-0.13,-2.28,9.84
-1.79,-9.66,0.27,9.82,-9.56,-0.13,-2.23,9.82
-1.77,-9.60,0.20,9.77,-9.57,-0.06,-2.19,9.82
-1.79,-9.60,0.11,9.76,-9.57,-0.07,-2.17,9.81
-1.74,-9.65,0.07,9.81,-9.63,-0.08,-2.20,9.88
-1.73,-9.68,0.17,9.84,-9.66,-0.09,-2.18,9.90
-1.70,-9.69,0.19,9.84,-9.65,-0.14,-2.20,9.90
-1.70,-9.68,0.16,9.83,-9.66,-0.15,-2.18,9.90
-1.73,-9.68,0.19,9.84,-9.64,-0.13,-2.20,9.89
-1.74,-9.66,0.24,9.82,-9.61,-0.10,-2.17,9.86
-1.82,-9.64,0.23,9.81,-9.61,-0.10,-2.19,9.85
-1.81,-9.64,0.21,9.81,-9.60,-0.08,-2.15,9.84
-1.79,-9.60,0.18,9.77,-9.60,-0.08,-2.15,9.84
-1.76,-9.60,0.18,9.76,-9.58,-0.09,-2.13,9.81
-1.77,-9.62,0.13,9.78,-9.60,-0.10,-2.13,9.84
-1.74,-9.62,0.14,9.77,-9.60,-0.08,-2.14,9.84
-1.76,-9.64,0.17,9.80,-9.58,-0.07,-2.15,9.82
-1.75,-9.62,0.15,9.78,-9.60,-0.08,-2.18,9.84
-1.78,-9.69,0.20,9.86,-9.60,-0.10,-2.17,9.85
-1.78,-9.70,0.15,9.86,-9.64,-0.11,-2.17,9.88
-1.77,-9.67,0.19,9.83,-9.65,-0.10,-2.12,9.88
-1.68,-9.68,0.13,9.83,-9.62,-0.09,-2.09,9.84
-1.75,-9.68,0.22,9.84,-9.68,-0.10,-2.23,9.93
-1.77,-9.69,0.22,9.86,-9.60,-0.11,-2.17,9.85
-1.73,-9.66,0.20,9.81,-9.65,-0.08,-2.16,9.89
-1.71,-9.63,0.09,9.78,-9.62,-0.11,-2.10,9.85
-1.77,-9.70,0.16,9.86,-9.65,-0.06,-2.17,9.89
-1.76,-9.66,0.18,9.82,-9.63,-0.10,-2.16,9.87
-1.76,-9.64,0.15,9.80,-9.61,-0.11,-2.16,9.85
-1.71,-9.62,0.06,9.77,-9.59,-0.11,-2.09,9.81
-1.70,-9.65,0.10,9.80,-9.59,-0.11,-2.15,9.83
-1.72,-9.66,0.12,9.81,-9.59,-0.08,-2.18,9.84
-1.73,-9.63,0.12,9.79,-9.60,-0.10,-2.20,9.85
-1.73,-9.65,0.12,9.80,-9.62,-0.06,-2.18,9.86
-1.74,-9.63,0.07,9.78,-9.61,-0.06,-2.14,9.84
-1.79,-9.65,0.14,9.82,-9.62,-0.06,-2.17,9.86
-1.77,-9.63,0.08,9.79,-9.64,-0.08,-2.14,9.88
-1.77,-9.66,0.15,9.83,-9.62,-0.10,-2.12,9.85
-1.75,-9.64,0.12,9.80,-9.61,-0.10,-2.09,9.84
-1.77,-9.64,0.16,9.80,-9.59,-0.08,-2.14,9.83
-1.77,-9.62,0.08,9.78,-9.59,-0.09,-2.14,9.82
-1.72,-9.64,0.10,9.80,-9.57,-0.11,-2.12,9.80
-1.74,-9.65,0.07,9.80,-9.62,-0.10,-2.14,9.85
-1.75,-9.70,0.13,9.86,-9.64,-0.07,-2.14,9.88
-1.73,-9.70,0.17,9.85,-9.66,-0.09,-2.12,9.89
-1.73,-9.70,0.13,9.86,-9.67,-0.10,-2.12,9.90
-1.74,-9.68,0.17,9.83,-9.68,-0.08,-2.13,9.91
-1.75,-9.68,0.11,9.83,-9.66,-0.09,-2.10,9.88
-1.72,-9.68,0.13,9.83,-9.69,-0.08,-2.17,9.93
-1.74,-9.67,0.08,9.83,-9.63,-0.07,-2.10,9.85
-1.75,-9.68,0.11,9.84,-9.63,-0.06,-2.12,9.86
-1.73,-9.61,0.06,9.76,-9.60,-0.07,-2.06,9.82
-1.76,-9.60,0.14,9.76,-9.61,-0.11,-2.10,9.84
-1.73,-9.62,0.13,9.77,-9.59,-0.11,-2.06,9.80
-1.75,-9.60,0.16,9.76,-9.59,-0.11,-2.13,9.83
-1.78,-9.63,0.09,9.79,-9.63,-0.06,-2.10,9.86
-1.78,-9.66,0.10,9.82,-9.63,-0.07,-2.08,9.85
-1.76,-9.69,0.20,9.85,-9.64,-0.07,-2.07,9.86
-1.73,-9.69,0.19,9.85,-9.68,-0.10,-2.08,9.90
-1.76,-9.69,0.17,9.85,-9.67,-0.07,-2.09,9.89
-1.73,-9.67,0.14,9.83,-9.67,-0.07,-2.08,9.89
-1.72,-9.68,0.12,9.84,-9.66,-0.07,-2.07,9.88
-1.73,-9.67,0.06,9.82,-9.69,-0.08,-2.06,9.91
-1.74,-9.67,0.11,9.83,-9.65,-0.07,-2.08,9.87
-1.71,-9.67,0.03,9.82,-9.67,-0.06,-2.05,9.88
-1.69,-9.69,0.02,9.83,-9.66,-0.09,-2.06,9.88
-1.78,-9.70,0.11,9.87,-9.67,-0.09,-2.14,9.90
-1.79,-9.68,0.22,9.85,-9.65,-0.09,-2.04,9.86
-1.80,-9.60,0.17,9.77,-9.57,-0.09,-2.02,9.78
-1.72,-9.61,-0.04,9.76,-9.63,-0.10,-2.14,9.87
-1.71,-9.69,0.00,9.84,-9.62,-0.12,-2.04,9.83
-1.72,-9.67,-0.01,9.82,-9.58,-0.10,-2.01,9.79
-1.76,-9.66,0.07,9.82,-9.63,-0.07,-2.19,9.88
-1.81,-9.67,0.25,9.84,-9.58,-0.08,-2.15,9.82
-1.77,-9.60,0.17,9.76,-9.65,-0.06,-2.07,9.87
-1.74,-9.60,0.00,9.75,-9.61,-0.06,-2.04,9.83
-1.75,-9.66,0.00,9.82,-9.65,-0.08,-2.09,9.87
-1.76,-9.68,-0.05,9.83,-9.67,-0.07,-2.06,9.89
-1.76,-9.67,0.10,9.83,-9.69,-0.05,-2.07,9.90
-1.71,-9.67,0.05,9.82,-9.68,-0.07,-2.05,9.89
-1.68,-9.68,-0.07,9.82,-9.69,-0.10,-2.06,9.91
-1.70,-9.72,0.08,9.87,-9.67,-0.09,-2.04,9.88
-1.73,-9.71,0.12,9.87,-9.63,-0.11,-2.03,9.84
-1.74,-9.67,0.09,9.83,-9.67,-0.07,-2.05,9.88
-1.74,-9.66,0.11,9.81,-9.62,-0.09,-2.04,9.84
-1.76,-9.65,0.08,9.81,-9.63,-0.08,-2.03,9.84
-1.76,-9.61,0.07,9.77,-9.62,-0.10,-2.00,9.83
-1.75,-9.62,0.06,9.78,-9.64,-0.08,-1.99,9.85
-1.75,-9.67,0.24,9.83,-9.62,-0.06,-2.01,9.83
-1.74,-9.63,0.07,9.79,-9.62,-0.06,-2.00,9.83
-1.74,-9.63,0.04,9.79,-9.64,-0.08,-2.03,9.85
-1.77,-9.65,0.06,9.82,-9.59,-0.09,-2.01,9.80
-1.75,-9.64,-0.03,9.79,-9.64,-0.08,-2.03,9.85
-1.76,-9.67,0.03,9.83,-9.66,-0.04,-2.03,9.87
-1.70,-9.67,0.05,9.82,-9.67,-0.06,-1.98,9.87
-1.74,-9.66,0.03,9.82,-9.69,-0.03,-2.00,9.89
-1.77,-9.69,0.09,9.85,-9.71,-0.06,-2.10,9.94
-1.77,-9.73,0.08,9.88,-9.68,-0.07,-1.97,9.88
-1.76,-9.71,0.15,9.87,-9.70,-0.08,-2.02,9.91
-1.76,-9.67,0.15,9.83,-9.63,-0.09,-2.02,9.84
-1.74,-9.62,0.04,9.77,-9.64,-0.07,-2.04,9.86
-1.78,-9.64,0.02,9.81,-9.64,-0.05,-2.01,9.85
-1.78,-9.66,0.02,9.83,-9.63,-0.05,-1.98,9.83
-1.74,-9.63,0.04,9.79,-9.66,-0.08,-2.01,9.86
-1.72,-9.63,0.06,9.78,-9.60,-0.05,-2.00,9.80
-1.73,-9.69,0.04,9.84,-9.65,-0.07,-2.02,9.86
-1.75,-9.69,0.12,9.85,-9.67,-0.05,-2.01,9.88
-1.74,-9.66,0.07,9.82,-9.66,-0.05,-2.04,9.88
-1.77,-9.69,0.07,9.85,-9.65,-0.06,-2.02,9.86
-1.77,-9.66,0.09,9.82,-9.65,-0.03,-2.04,9.86
-1.78,-9.65,0.02,9.81,-9.67,-0.05,-2.04,9.88
-1.78,-9.65,0.08,9.81,-9.65,-0.05,-1.99,9.86
-1.77,-9.65,0.03,9.82,-9.66,-0.08,-1.97,9.86
-1.75,-9.66,0.05,9.82,-9.67,-0.07,-1.97,9.87
-1.75,-9.68,0.04,9.84,-9.68,-0.08,-2.00,9.88
-1.78,-9.63,0.03,9.80,-9.67,-0.07,-1.99,9.87
-1.77,-9.67,0.06,9.83,-9.70,-0.07,-1.98,9.90
-1.77,-9.66,0.06,9.82,-9.63,-0.07,-1.98,9.83
-1.80,-9.65,0.07,9.82,-9.66,-0.04,-1.99,9.86
-1.78,-9.66,0.03,9.82,-9.67,-0.02,-1.98,9.87
-1.73,-9.66,0.05,9.81,-9.65,-0.05,-2.04,9.87
-1.75,-9.66,-0.00,9.82,-9.62,-0.03,-1.98,9.82
-1.76,-9.67,0.01,9.83,-9.64,-0.05,-1.99,9.85
-1.78,-9.64,0.04,9.80,-9.68,-0.03,-2.01,9.88
-1.75,-9.69,0.14,9.85,-9.66,-0.02,-2.00,9.86
-1.75,-9.65,0.03,9.81,-9.68,-0.06,-2.01,9.88
-1.78,-9.65,0.05,9.81,-9.63,-0.04,-1.99,9.84
-1.73,-9.66,0.03,9.81,-9.67,-0.06,-1.99,9.87
-1.72,-9.57,0.15,9.72,-9.64,-0.07,-2.00,9.85
-1.72,-9.66,0.14,9.81,-9.65,-0.06,-2.01,9.86
-1.72,-9.67,0.01,9.82,-9.66,-0.05,-2.00,9.87
-1.74,-9.65,0.01,9.81,-9.65,-0.04,-2.01,9.86
-1.75,-9.68,0.03,9.83,-9.67,-0.07,-1.99,9.87
-1.75,-9.63,-0.02,9.79,-9.65,-0.08,-2.00,9.86
-1.74,-9.68,0.04,9.83,-9.64,-0.04,-2.01,9.85
-1.75,-9.62,0.13,9.78,-9.64,-0.06,-2.03,9.86
-1.75,-9.72,0.05,9.87,-9.64,-0.04,-2.00,9.85
-1.74,-9.67,-0.05,9.82,-9.65,-0.06,-1.96,9.85
-1.73,-9.68,-0.03,9.84,-9.67,-0.06,-2.03,9.88
-1.73,-9.68,-0.01,9.83,-9.69,-0.08,-1.96,9.88
-1.70,-9.66,0.02,9.81,-9.68,-0.08,-2.02,9.89
-1.79,-9.69,0.07,9.85,-9.68,-0.06,-2.03,9.89
-1.80,-9.71,0.17,9.88,-9.65,-0.04,-1.95,9.84
-1.78,-9.62,0.08,9.78,-9.62,-0.06,-1.94,9.82
-1.70,-9.54,-0.04,9.69,-9.64,-0.02,-2.09,9.86
-1.70,-9.71,-0.01,9.86,-9.65,-0.07,-1.95,9.85
-1.70,-9.64,-0.06,9.79,-9.63,-0.07,-1.91,9.82
-1.72,-9.68,-0.01,9.83,-9.68,-0.07,-2.05,9.89
-1.81,-9.71,0.14,9.88,-9.66,-0.06,-2.04,9.88
-1.80,-9.66,0.12,9.82,-9.68,-0.06,-1.99,9.88
-1.74,-9.61,0.04,9.77,-9.65,-0.06,-1.94,9.84
-1.79,-9.60,-0.03,9.77,-9.64,-0.04,-1.99,9.85
-1.78,-9.65,0.00,9.81,-9.64,-0.03,-1.97,9.84
-1.76,-9.64,-0.00,9.79,-9.69,-0.02,-1.98,9.89
-1.71,-9.66,0.01,9.81,-9.71,-0.04,-1.98,9.92
-1.71,-9.67,0.04,9.82,-9.68,-0.09,-1.95,9.87
-1.71,-9.71,0.05,9.86,-9.68,-0.05,-1.93,9.87
-1.73,-9.70,0.06,9.85,-9.68,-0.05,-1.96,9.87
-1.75,-9.66,0.05,9.81,-9.66,-0.03,-1.95,9.86
-1.73,-9.63,0.04,9.79,-9.63,-0.04,-1.92,9.82
-1.76,-9.61,0.00,9.77,-9.63,-0.05,-1.93,9.82
-1.73,-9.63,0.01,9.78,-9.66,-0.07,-1.93,9.85
-1.75,-9.64,-0.01,9.80,-9.67,-0.06,-1.91,9.85
-1.72,-9.60,0.02,9.75,-9.65,-0.04,-1.91,9.84
-1.73,-9.63,0.02,9.79,-9.64,-0.06,-1.95,9.83
-1.69,-9.64,0.02,9.79,-9.66,-0.07,-1.96,9.85
-1.72,-9.66,0.02,9.81,-9.66,-0.05,-1.98,9.86
-1.76,-9.68,-0.02,9.83,-9.66,-0.05,-1.95,9.86
-1.71,-9.53,-0.43,9.69,-9.70,-0.06,-1.96,9.90
-1.76,-9.72,-0.02,9.88,-9.70,-0.05,-1.93,9.89
-1.74,-9.68,0.01,9.84,-9.68,-0.04,-1.92,9.87
-1.76,-9.67,-0.06,9.83,-9.69,-0.04,-1.93,9.88
-1.75,-9.71,0.07,9.86,-9.71,-0.03,-2.00,9.92
-1.75,-9.70,0.06,9.86,-9.72,-0.06,-1.95,9.91
-1.72,-9.64,-0.00,9.79,-9.64,-0.05,-1.95,9.83
-1.78,-9.63,-0.02,9.79,-9.65,-0.06,-1.98,9.85
-1.79,-9.60,0.00,9.77,-9.64,-0.05,-1.95,9.83
-1.79,-9.66,0.01,9.82,-9.67,-0.05,-2.01,9.87
-1.72,-9.65,0.02,9.80,-9.65,-0.03,-1.97,9.85
-1.70,-9.65,0.01,9.80,-9.65,-0.06,-1.95,9.84
-1.67,-9.66,-0.02,9.80,-9.66,-0.06,-1.96,9.85
-1.71,-9.66,-0.02,9.81,-9.65,-0.05,-1.98,9.85
-1.70,-9.64,-0.00,9.79,-9.67,-0.05,-1.98,9.87
-1.75,-9.67,-0.04,9.83,-9.68,-0.07,-2.02,9.89
-1.74,-9.72,-0.10,9.88,-9.68,-0.03,-2.01,9.89
-1.76,-9.68,-0.04,9.84,-9.64,-0.08,-1.99,9.85
-1.74,-9.69,-0.01,9.84,-9.66,-0.05,-1.99,9.86
-1.72,-9.68,0.04,9.83,-9.67,-0.06,-1.93,9.86
-1.73,-9.66,0.04,9.81,-9.68,-0.07,-1.93,9.87
-1.76,-9.68,0.03,9.84,-9.68,-0.06,-1.94,9.87
-1.72,-9.67,-0.00,9.82,-9.68,-0.07,-1.96,9.87
-1.75,-9.68,-0.01,9.83,-9.67,-0.07,-1.96,9.86
-1.72,-9.67,0.00,9.82,-9.66,-0.06,-1.98,9.86
-1.74,-9.66,0.00,9.82,-9.63,-0.06,-1.99,9.84
-1.74,-9.67,0.04,9.83,-9.64,-0.05,-1.99,9.84
-1.75,-9.68,0.00,9.84,-9.66,-0.06,-1.98,9.86
-1.74,-9.66,0.02,9.82,-9.65,-0.05,-2.01,9.85
-1.74,-9.67,0.02,9.83,-9.67,-0.07,-2.02,9.88
-1.74,-9.64,0.02,9.80,-9.64,-0.07,-1.97,9.84
-1.75,-9.63,0.01,9.79,-9.67,-0.08,-2.04,9.89
-1.75,-9.67,0.05,9.82,-9.65,-0.07,-2.07,9.87
-1.73,-9.65,0.04,9.81,-9.63,-0.06,-2.04,9.84
-1.71,-9.67,0.01,9.82,-9.64,-0.08,-2.04,9.85
-1.70,-9.66,0.03,9.81,-9.63,-0.06,-2.02,9.84
-1.72,-9.66,0.02,9.81,-9.66,-0.11,-2.05,9.87
-1.71,-9.66,0.05,9.81,-9.65,-0.10,-2.04,9.86
-1.74,-9.69,0.07,9.85,-9.66,-0.08,-2.07,9.88
-1.74,-9.69,0.04,9.84,-9.69,-0.06,-2.04,9.91
-1.74,-9.67,0.08,9.83,-9.67,-0.09,-2.05,9.88
-1.73,-9.62,0.06,9.78,-9.66,-0.08,-2.08,9.88
-1.72,-9.65,0.04,9.80,-9.66,-0.06,-2.05,9.88
-1.76,-9.71,0.09,9.87,-9.66,-0.07,-2.08,9.88
-1.71,-9.61,0.01,9.76,-9.68,-0.11,-2.08,9.90
-1.72,-9.64,0.17,9.79,-9.58,-0.09,-2.07,9.80
-1.72,-9.64,0.14,9.80,-9.62,-0.08,-2.04,9.84
-1.75,-9.65,0.15,9.81,-9.66,-0.10,-2.07,9.88
-1.72,-9.67,0.15,9.82,-9.61,-0.11,-2.10,9.84
-1.73,-9.68,0.24,9.84,-9.64,-0.09,-2.11,9.87
-1.71,-9.65,0.10,9.80,-9.64,-0.11,-2.10,9.86
-1.67,-9.60,0.03,9.75,-9.62,-0.10,-2.07,9.85
-1.70,-9.67,0.09,9.82,-9.66,-0.08,-2.15,9.89
-1.78,-9.73,0.31,9.89,-9.65,-0.09,-2.18,9.89
-1.75,-9.69,0.25,9.85,-9.60,-0.12,-2.01,9.81
-1.71,-9.52,0.13,9.68,-9.59,-0.12,-2.13,9.83
-1.68,-9.67,0.05,9.82,-9.63,-0.08,-2.24,9.89
-1.69,-9.72,0.11,9.87,-9.57,-0.12,-1.97,9.78
-1.69,-9.66,0.11,9.81,-9.65,-0.08,-2.17,9.89
-1.73,-9.65,0.20,9.81,-9.58,-0.10,-2.28,9.85
-1.74,-9.67,0.38,9.83,-9.57,-0.08,-2.12,9.81
-1.73,-9.56,0.17,9.71,-9.58,-0.13,-2.06,9.80
-1.71,-9.59,0.06,9.74,-9.62,-0.14,-2.07,9.84
-1.75,-9.68,0.10,9.83,-9.64,-0.08,-2.11,9.87
-1.72,-9.73,0.12,9.89,-9.63,-0.11,-2.09,9.85
-1.71,-9.72,0.12,9.87,-9.68,-0.10,-2.11,9.91
-1.68,-9.74,0.13,9.88,-9.66,-0.11,-2.12,9.89
-1.68,-9.75,0.27,9.90,-9.68,-0.13,-2.12,9.92
-1.70,-9.68,0.20,9.83,-9.64,-0.14,-2.14,9.88
-1.67,-9.66,0.19,9.81,-9.65,-0.14,-2.13,9.88
-1.72,-9.67,0.24,9.82,-9.60,-0.11,-2.12,9.83
-1.74,-9.62,0.18,9.78,-9.61,-0.14,-2.09,9.84
-1.73,-9.62,0.16,9.77,-9.61,-0.13,-2.14,9.85
-1.68,-9.60,0.19,9.75,-9.60,-0.13,-2.13,9.83
-1.70,-9.64,0.24,9.80,-9.57,-0.13,-2.13,9.80
-1.69,-9.60,0.16,9.74,-9.59,-0.14,-2.15,9.83
-1.72,-9.67,0.29,9.82,-9.61,-0.11,-2.12,9.84
-1.74,-9.62,0.15,9.78,-9.59,-0.13,-2.20,9.84
-1.70,-9.62,0.12,9.77,-9.53,-0.14,-2.12,9.77
-1.74,-9.67,0.14,9.82,-9.66,-0.12,-2.15,9.90
-1.72,-9.63,0.07,9.78,-9.61,-0.08,-2.06,9.83
-1.69,-9.62,0.25,9.77,-9.61,-0.09,-2.16,9.85
-1.73,-9.69,0.03,9.85,-9.65,-0.11,-2.24,9.90
-1.73,-9.68,0.21,9.84,-9.63,-0.14,-2.17,9.88
-1.70,-9.68,0.25,9.83,-9.64,-0.10,-2.21,9.89
-1.69,-9.70,0.20,9.85,-9.59,-0.19,-2.20,9.84
-1.68,-9.63,0.09,9.78,-9.62,-0.14,-2.16,9.86
-1.71,-9.63,0.11,9.78,-9.63,-0.10,-2.19,9.88
-1.70,-9.64,0.20,9.79,-9.63,-0.14,-2.17,9.87
-1.67,-9.64,0.17,9.78,-9.64,-0.13,-2.15,9.87
-1.76,-9.81,0.33,9.98,-9.62,-0.14,-2.14,9.85
-1.71,-9.64,0.33,9.79,-9.66,-0.16,-2.22,9.91
-1.71,-9.69,0.24,9.84,-9.59,-0.16,-2.18,9.83
-1.72,-9.69,0.26,9.85,-9.63,-0.15,-2.20,9.87
-1.73,-9.68,0.19,9.83,-9.59,-0.14,-2.20,9.84
-1.71,-9.64,0.15,9.79,-9.60,-0.15,-2.16,9.84
-1.71,-9.59,0.19,9.74,-9.58,-0.16,-2.21,9.83
-1.69,-9.61,0.18,9.76,-9.57,-0.15,-2.19,9.82
-1.69,-9.62,0.20,9.77,-9.59,-0.12,-2.20,9.84
-1.70,-9.61,0.20,9.76,-9.59,-0.12,-2.20,9.84
-1.70,-9.61,0.20,9.76,-9.59,-0.16,-2.20,9.84
-1.71,-9.67,0.20,9.82,-9.62,-0.15,-2.21,9.87
-1.71,-9.67,0.17,9.82,-9.59,-0.14,-2.18,9.83
-1.71,-9.66,0.18,9.81,-9.63,-0.14,-2.19,9.87
-1.71,-9.63,0.15,9.78,-9.60,-0.13,-2.19,9.85
-1.68,-9.62,0.20,9.77,-9.59,-0.12,-2.23,9.85
-1.69,-9.64,0.25,9.79,-9.60,-0.14,-2.21,9.85
-1.68,-9.63,0.22,9.78,-9.60,-0.17,-2.22,9.85
-1.74,-9.66,0.23,9.82,-9.59,-0.15,-2.22,9.85
-1.70,-9.67,0.23,9.82,-9.61,-0.16,-2.23,9.86
-1.70,-9.65,0.13,9.80,-9.60,-0.15,-2.21,9.85
-1.70,-9.61,0.17,9.76,-9.58,-0.14,-2.20,9.83
-1.71,-9.64,0.19,9.79,-9.61,-0.14,-2.19,9.86
-1.70,-9.66,0.20,9.81,-9.63,-0.14,-2.17,9.87
-1.75,-9.68,0.19,9.84,-9.60,-0.16,-2.16,9.85
-1.73,-9.69,0.19,9.85,-9.62,-0.17,-2.19,9.87
-1.70,-9.69,0.17,9.84,-9.62,-0.16,-2.20,9.87
-1.69,-9.69,0.18,9.83,-9.60,-0.16,-2.22,9.86
-1.70,-9.67,0.14,9.82,-9.60,-0.15,-2.19,9.85
-1.72,-9.67,0.19,9.83,-9.59,-0.14,-2.18,9.84
-1.72,-9.63,0.20,9.79,-9.59,-0.15,-2.20,9.84
-1.71,-9.62,0.18,9.78,-9.58,-0.16,-2.20,9.83
-1.72,-9.65,0.18,9.80,-9.59,-0.17,-2.20,9.84
-1.73,-9.66,0.17,9.82,-9.60,-0.18,-2.20,9.85
-1.69,-9.66,0.15,9.81,-9.63,-0.16,-2.17,9.88
-1.67,-9.67,0.06,9.82,-9.60,-0.14,-2.18,9.84
-1.74,-9.75,0.16,9.90,-9.63,-0.14,-2.24,9.89
-1.77,-9.70,0.19,9.86,-9.67,-0.16,-2.25,9.93
-1.72,-9.66,0.26,9.81,-9.57,-0.15,-2.14,9.81
-1.69,-9.57,0.10,9.71,-9.57,-0.15,-2.20,9.82
-1.68,-9.64,0.13,9.79,-9.61,-0.14,-2.24,9.87
-1.68,-9.66,0.18,9.81,-9.60,-0.17,-2.15,9.84
-1.64,-9.67,0.15,9.81,-9.60,-0.16,-2.26,9.87
-1.70,-9.70,0.23,9.85,-9.57,-0.18,-2.26,9.83
-1.78,-9.69,0.35,9.86,-9.57,-0.11,-2.21,9.82
-1.73,-9.62,0.17,9.78,-9.59,-0.11,-2.15,9.83
-1.70,-9.58,0.10,9.73,-9.59,-0.13,-2.14,9.83
-1.72,-9.62,0.06,9.78,-9.63,-0.10,-2.14,9.86
-1.75,-9.68,0.18,9.84,-9.63,-0.14,-2.13,9.87
-1.72,-9.66,0.16,9.81,-9.67,-0.14,-2.13,9.90
-1.68,-9.70,0.17,9.85,-9.68,-0.17,-2.15,9.92
-1.70,-9.67,0.17,9.82,-9.68,-0.19,-2.16,9.92
-1.71,-9.72,0.25,9.87,-9.64,-0.17,-2.13,9.87
-1.72,-9.68,0.22,9.84,-9.63,-0.13,-2.13,9.86
-1.71,-9.65,0.19,9.80,-9.62,-0.14,-2.10,9.84
-1.75,-9.69,0.29,9.85,-9.61,-0.11,-2.12,9.84
-1.71,-9.64,0.15,9.79,-9.63,-0.15,-2.09,9.86
-1.69,-9.66,0.11,9.81,-9.63,-0.14,-2.10,9.85
-1.70,-9.66,0.21,9.81,-9.58,-0.14,-2.12,9.82
-1.68,-9.65,0.06,9.79,-9.66,-0.14,-2.14,9.90
-1.71,-9.63,0.12,9.79,-9.61,-0.13,-2.07,9.83
-1.71,-9.67,0.08,9.82,-9.65,-0.14,-2.14,9.89
-1.74,-9.66,0.13,9.81,-9.62,-0.13,-2.14,9.86
-1.71,-9.69,0.10,9.84,-9.64,-0.14,-2.10,9.87
-1.69,-9.68,0.06,9.83,-9.64,-0.12,-2.05,9.86
-1.73,-9.67,0.07,9.82,-9.67,-0.10,-2.12,9.90
-1.77,-9.74,0.29,9.90,-9.67,-0.12,-2.20,9.92
-1.72,-9.73,0.21,9.88,-9.67,-0.08,-2.03,9.88
-1.71,-9.67,0.15,9.82,-9.63,-0.15,-2.03,9.85
-1.74,-9.67,0.16,9.83,-9.64,-0.14,-2.10,9.87
-1.73,-9.67,0.19,9.83,-9.61,-0.15,-2.16,9.85
-1.73,-9.64,0.12,9.79,-9.65,-0.10,-2.13,9.88
-1.72,-9.61,0.07,9.77,-9.59,-0.13,-2.08,9.82
-1.69,-9.67,0.11,9.81,-9.62,-0.13,-2.09,9.85
-1.70,-9.67,0.03,9.82,-9.64,-0.13,-2.10,9.87
-1.69,-9.65,0.11,9.79,-9.62,-0.11,-2.08,9.84
-1.70,-9.66,0.13,9.80,-9.61,-0.12,-2.12,9.84
-1.70,-9.67,0.12,9.82,-9.62,-0.11,-2.09,9.84
-1.73,-9.65,0.13,9.80,-9.66,-0.11,-2.14,9.90
-1.71,-9.63,0.20,9.79,-9.64,-0.08,-2.08,9.86
-1.75,-9.68,0.10,9.84,-9.66,-0.10,-2.13,9.89
-1.72,-9.66,0.07,9.81,-9.67,-0.08,-2.11,9.90
-1.70,-9.66,0.08,9.81,-9.65,-0.09,-2.09,9.87
-1.70,-9.69,0.12,9.84,-9.67,-0.09,-2.09,9.89
-1.72,-9.69,0.07,9.84,-9.64,-0.13,-2.08,9.87
-1.71,-9.67,0.12,9.82,-9.66,-0.11,-2.07,9.88
-1.73,-9.67,0.10,9.83,-9.66,-0.11,-2.06,9.87
-1.73,-9.66,0.10,9.81,-9.68,-0.11,-2.06,9.90
-1.73,-9.66,0.12,9.82,-9.65,-0.11,-2.07,9.87
-1.73,-9.64,0.11,9.79,-9.64,-0.09,-2.05,9.86
-1.73,-9.64,0.09,9.79,-9.64,-0.09,-2.05,9.86
-1.74,-9.63,0.08,9.78,-9.65,-0.10,-2.08,9.87
-1.73,-9.64,0.10,9.79,-9.62,-0.12,-2.06,9.84
-1.73,-9.65,0.10,9.80,-9.64,-0.10,-2.06,9.86
-1.73,-9.64,0.10,9.80,-9.61,-0.11,-2.04,9.82
-1.72,-9.63,0.11,9.79,-9.61,-0.11,-2.06,9.83
-1.73,-9.64,0.12,9.79,-9.64,-0.11,-2.03,9.85
-1.71,-9.66,0.13,9.81,-9.64,-0.11,-2.05,9.86
-1.71,-9.65,0.11,9.80,-9.67,-0.09,-2.05,9.89
-1.70,-9.66,0.10,9.81,-9.65,-0.11,-2.05,9.87
-1.73,-9.69,0.11,9.84,-9.64,-0.11,-2.07,9.86
-1.73,-9.65,-0.06,9.80,-9.64,-0.10,-2.04,9.85
-1.73,-9.68,0.09,9.83,-9.63,-0.11,-2.03,9.84
-1.70,-9.66,0.08,9.81,-9.64,-0.10,-2.06,9.85
-1.71,-9.69,0.10,9.84,-9.64,-0.10,-2.06,9.86
-1.70,-9.65,0.23,9.80,-9.63,-0.09,-2.07,9.85
-1.71,-9.65,0.08,9.80,-9.64,-0.10,-2.06,9.86
-1.76,-9.66,0.08,9.82,-9.62,-0.07,-2.06,9.84
-1.72,-9.65,0.08,9.81,-9.65,-0.07,-2.09,9.88
-1.75,-9.66,0.09,9.82,-9.65,-0.09,-2.05,9.86
-1.71,-9.68,0.07,9.83,-9.64,-0.08,-2.02,9.85
-1.69,-9.66,0.03,9.81,-9.64,-0.11,-2.00,9.84
-1.76,-9.74,0.11,9.89,-9.67,-0.09,-2.12,9.90
-1.83,-9.72,0.37,9.90,-9.69,-0.08,-2.13,9.93
-1.78,-9.66,0.19,9.82,-9.62,-0.08,-1.95,9.82
-1.70,-9.54,-0.03,9.69,-9.64,-0.09,-2.17,9.88
-1.66,-9.69,-0.02,9.83,-9.62,-0.11,-2.01,9.82
-1.67,-9.71,0.02,9.85,-9.62,-0.12,-1.92,9.81
-1.70,-9.68,0.06,9.83,-9.70,-0.10,-2.10,9.92
-1.76,-9.71,0.14,9.87,-9.64,-0.11,-2.17,9.88
-1.75,-9.63,0.19,9.79,-9.62,-0.09,-2.02,9.83
-1.72,-9.56,0.11,9.71,-9.61,-0.11,-1.99,9.81
-1.71,-9.61,0.04,9.76,-9.61,-0.11,-2.05,9.83
-1.75,-9.61,0.01,9.77,-9.62,-0.08,-2.05,9.83
-1.76,-9.62,0.03,9.78,-9.64,-0.08,-2.07,9.86
-1.70,-9.59,-0.02,9.74,-9.70,-0.06,-2.05,9.91
-1.70,-9.65,0.10,9.80,-9.71,-0.07,-2.03,9.92
-1.74,-9.74,0.26,9.90,-9.68,-0.08,-2.02,9.89
-1.75,-9.73,0.18,9.89,-9.70,-0.08,-2.01,9.90
-1.77,-9.64,0.13,9.80,-9.66,-0.06,-2.01,9.87
-1.73,-9.66,0.08,9.82,-9.63,-0.09,-2.01,9.83
-1.77,-9.65,0.05,9.81,-9.66,-0.06,-2.00,9.86
-1.73,-9.64,0.07,9.79,-9.63,-0.07,-1.97,9.83
-1.72,-9.60,0.05,9.76,-9.63,-0.09,-1.98,9.84
-1.74,-9.63,0.09,9.79,-9.63,-0.08,-1.99,9.84
-1.72,-9.65,0.10,9.80,-9.64,-0.08,-2.03,9.86
-1.71,-9.65,0.12,9.80,-9.62,-0.08,-2.00,9.82
-1.71,-9.66,0.09,9.81,-9.63,-0.07,-2.02,9.84
-1.70,-9.65,0.08,9.80,-9.62,-0.09,-2.01,9.83
-1.74,-9.66,-0.26,9.82,-9.65,-0.08,-2.05,9.86
-1.75,-9.68,0.03,9.84,-9.66,-0.07,-2.02,9.87
-1.69,-9.72,0.02,9.87,-9.69,-0.08,-2.00,9.90
-1.71,-9.65,-0.02,9.80,-9.68,-0.04,-2.00,9.88
-1.75,-9.70,0.13,9.86,-9.71,-0.09,-2.09,9.94
-1.74,-9.71,0.14,9.86,-9.71,-0.10,-2.02,9.92
-1.74,-9.66,0.06,9.82,-9.67,-0.10,-1.99,9.87
-1.75,-9.65,0.03,9.81,-9.61,-0.08,-2.04,9.83
-1.77,-9.65,0.08,9.81,-9.64,-0.06,-2.06,9.85
-1.77,-9.64,0.08,9.80,-9.66,-0.07,-2.07,9.88
-1.71,-9.63,0.07,9.79,-9.64,-0.04,-2.01,9.85
-1.70,-9.63,0.03,9.78,-9.65,-0.05,-2.03,9.86
-1.71,-9.64,0.04,9.79,-9.64,-0.07,-1.97,9.84
-1.70,-9.68,0.05,9.83,-9.68,-0.08,-2.00,9.88
-1.69,-9.68,0.00,9.83,-9.67,-0.05,-1.98,9.87
-1.75,-9.70,0.03,9.86,-9.68,-0.10,-2.04,9.89
-1.75,-9.68,0.06,9.84,-9.65,-0.10,-2.01,9.86
-1.73,-9.66,0.04,9.82,-9.65,-0.09,-2.02,9.86
-1.74,-9.66,0.07,9.82,-9.65,-0.07,-2.01,9.86
-1.73,-9.65,0.09,9.80,-9.67,-0.07,-2.04,9.88
-1.74,-9.63,0.10,9.79,-9.66,-0.07,-2.00,9.86
-1.72,-9.63,0.08,9.78,-9.67,-0.07,-1.99,9.87
-1.74,-9.67,0.06,9.82,-9.67,-0.08,-2.03,9.88
-1.71,-9.65,0.06,9.80,-9.66,-0.07,-2.00,9.86
-1.73,-9.66,0.06,9.82,-9.64,-0.07,-1.99,9.85
-1.72,-9.68,0.03,9.83,-9.66,-0.06,-1.99,9.86
-1.73,-9.67,0.02,9.82,-9.68,-0.07,-2.00,9.89
-1.72,-9.67,0.07,9.82,-9.65,-0.05,-1.99,9.85
-1.75,-9.66,0.04,9.81,-9.66,-0.06,-2.05,9.88
-1.73,-9.66,0.06,9.81,-9.63,-0.07,-1.98,9.83
-1.71,-9.66,0.04,9.82,-9.64,-0.09,-2.03,9.86
-1.70,-9.66,0.01,9.80,-9.65,-0.08,-1.99,9.85
-1.71,-9.64,0.05,9.79,-9.66,-0.08,-2.01,9.87
-1.68,-9.62,0.06,9.77,-9.65,-0.06,-2.01,9.85
-1.71,-9.64,0.04,9.79,-9.66,-0.08,-2.00,9.86
-1.71,-9.64,0.07,9.79,-9.63,-0.09,-1.98,9.83
-1.73,-9.67,0.05,9.82,-9.66,-0.06,-2.01,9.87
-1.73,-9.65,0.06,9.80,-9.64,-0.05,-2.04,9.86
-1.73,-9.68,0.03,9.83,-9.63,-0.09,-2.03,9.84
-1.73,-9.67,0.03,9.82,-9.65,-0.05,-2.00,9.86
-1.72,-9.65,0.04,9.80,-9.64,-0.06,-2.02,9.85
-1.70,-9.66,0.08,9.81,-9.66,-0.08,-2.04,9.87
-1.71,-9.66,0.03,9.81,-9.67,-0.05,-1.99,9.87
-1.74,-9.67,0.01,9.83,-9.66,-0.07,-2.03,9.87
-1.76,-9.69,0.01,9.85,-9.65,-0.06,-2.00,9.86
-1.73,-9.66,0.03,9.82,-9.70,-0.04,-2.02,9.90
-1.73,-9.66,0.02,9.81,-9.66,-0.08,-1.99,9.87
-1.73,-9.67,0.03,9.82,-9.65,-0.06,-2.01,9.86
-1.74,-9.65,0.04,9.80,-9.63,-0.06,-1.98,9.84
-1.73,-9.65,0.06,9.81,-9.63,-0.07,-2.00,9.84
-1.73,-9.63,0.03,9.78,-9.66,-0.06,-2.00,9.87
-1.73,-9.66,0.03,9.81,-9.65,-0.08,-1.99,9.85
-1.71,-9.63,0.06,9.78,-9.65,-0.05,-2.02,9.86
-1.69,-9.64,0.01,9.78,-9.62,-0.08,-1.98,9.82
-1.70,-9.68,0.01,9.83,-9.65,-0.04,-2.00,9.85
-1.80,-9.72,0.10,9.89,-9.68,-0.05,-2.06,9.89
-1.78,-9.69,0.20,9.86,-9.63,-0.07,-1.91,9.82
-1.70,-9.54,-0.02,9.69,-9.63,-0.04,-2.00,9.83
-1.65,-9.63,-0.10,9.77,-9.70,-0.07,-2.12,9.93
-1.71,-9.71,0.00,9.86,-9.62,-0.10,-1.87,9.80
-1.66,-9.65,-0.03,9.79,-9.67,-0.07,-2.08,9.89
-1.73,-9.71,0.05,9.86,-9.64,-0.08,-2.11,9.87
-1.76,-9.66,0.15,9.82,-9.66,-0.04,-2.02,9.87
-1.75,-9.60,0.10,9.76,-9.65,-0.06,-1.99,9.86
-1.74,-9.58,0.02,9.74,-9.64,-0.06,-1.96,9.83
-1.78,-9.64,-0.03,9.80,-9.66,-0.07,-2.06,9.87
-1.76,-9.65,0.00,9.81,-9.66,-0.07,-2.00,9.87
-1.73,-9.64,0.01,9.80,-9.67,-0.07,-2.00,9.88
-1.72,-9.67,0.02,9.82,-9.68,-0.08,-1.98,9.89
-1.70,-9.70,0.02,9.85,-9.70,-0.06,-1.95,9.90
-1.74,-9.74,0.07,9.90,-9.71,-0.06,-1.96,9.91
-1.73,-9.67,0.08,9.83,-9.70,-0.03,-1.96,9.89
-1.71,-9.57,0.22,9.72,-9.68,-0.05,-1.95,9.87
-1.74,-9.67,0.14,9.83,-9.64,-0.04,-1.95,9.84
-1.73,-9.69,0.08,9.84,-9.65,-0.07,-1.94,9.85
-1.74,-9.67,0.03,9.82,-9.67,-0.05,-1.92,9.86
-1.71,-9.66,0.03,9.81,-9.66,-0.09,-1.96,9.86
-1.67,-9.65,0.07,9.79,-9.63,-0.08,-1.98,9.83
-1.72,-9.64,0.08,9.79,-9.61,-0.07,-1.96,9.81
-1.72,-9.61,0.05,9.77,-9.61,-0.08,-1.99,9.82
-1.72,-9.61,0.08,9.76,-9.61,-0.06,-2.00,9.82
-1.71,-9.62,0.04,9.77,-9.60,-0.08,-1.97,9.80
-1.75,-9.65,0.03,9.81,-9.65,-0.07,-1.97,9.85
-1.67,-9.71,0.02,9.85,-9.67,-0.08,-1.96,9.87
-1.69,-9.68,-0.01,9.83,-9.67,-0.06,-1.96,9.86
-1.72,-9.73,0.07,9.88,-9.75,-0.06,-2.06,9.97
-1.71,-9.77,0.10,9.91,-9.74,-0.08,-1.98,9.94
-1.67,-9.74,0.12,9.88,-9.72,-0.10,-1.99,9.92
-1.70,-9.71,0.05,9.86,-9.66,-0.08,-1.97,9.86
-1.71,-9.70,-0.00,9.85,-9.68,-0.08,-2.02,9.89
-1.74,-9.69,0.01,9.85,-9.71,-0.07,-2.01,9.92
-1.75,-9.69,0.05,9.85,-9.69,-0.06,-1.99,9.89
-1.71,-9.67,0.05,9.82,-9.68,-0.10,-1.97,9.87
-1.71,-9.64,0.02,9.79,-9.67,-0.08,-1.97,9.87
-1.68,-9.67,0.01,9.81,-9.65,-0.09,-2.00,9.86
-1.72,-9.68,0.05,9.83,-9.66,-0.11,-2.03,9.87
-1.70,-9.66,0.04,9.81,-9.63,-0.10,-2.04,9.84
-1.70,-9.68,0.02,9.83,-9.63,-0.09,-2.01,9.83
-1.71,-9.69,0.04,9.84,-9.61,-0.10,-2.04,9.83
-1.68,-9.66,0.09,9.81,-9.66,-0.13,-2.00,9.86
-1.72,-9.72,0.01,9.87,-9.70,-0.12,-2.00,9.91
-1.71,-9.64,0.06,9.79,-9.68,-0.12,-2.03,9.89
-1.73,-9.75,0.05,9.90,-9.69,-0.11,-2.02,9.90
-1.68,-9.73,0.09,9.87,-9.70,-0.09,-2.05,9.91
-1.71,-9.68,0.16,9.83,-9.68,-0.05,-2.04,9.89
-1.68,-9.65,0.13,9.79,-9.65,-0.09,-2.05,9.86
-1.67,-9.64,0.16,9.79,-9.67,-0.08,-2.08,9.89
-1.66,-9.61,0.11,9.76,-9.62,-0.10,-2.08,9.84
-1.68,-9.59,0.13,9.74,-9.60,-0.09,-2.09,9.83
-1.69,-9.63,0.20,9.78,-9.60,-0.05,-2.10,9.82
-1.69,-9.64,0.11,9.79,-9.61,-0.07,-2.06,9.83
-1.72,-9.66,0.10,9.81,-9.60,-0.08,-2.07,9.83
-1.67,-9.63,0.10,9.77,-9.61,-0.08,-2.08,9.83
-1.71,-9.63,0.08,9.78,-9.61,-0.09,-2.09,9.84
-1.70,-9.63,0.09,9.78,-9.62,-0.09,-2.08,9.84
-1.69,-9.69,0.14,9.83,-9.62,-0.09,-2.05,9.84
-1.70,-9.65,0.12,9.80,-9.64,-0.10,-2.08,9.86
-1.70,-9.67,0.14,9.82,-9.66,-0.11,-2.07,9.88
-1.70,-9.66,0.13,9.81,-9.65,-0.10,-2.08,9.87
-1.72,-9.67,0.16,9.82,-9.64,-0.09,-2.09,9.87
-1.75,-9.63,0.25,9.79,-9.67,-0.09,-2.09,9.90
-1.74,-9.65,0.22,9.81,-9.65,-0.07,-2.10,9.88
-1.74,-9.67,0.17,9.83,-9.67,-0.10,-2.09,9.89
-1.71,-9.67,0.11,9.82,-9.64,-0.06,-2.10,9.87
-1.73,-9.66,0.12,9.82,-9.63,-0.08,-2.09,9.85
-1.71,-9.67,0.06,9.82,-9.65,-0.09,-2.13,9.88
-1.71,-9.66,0.05,9.81,-9.60,-0.08,-2.13,9.83
-1.74,-9.67,0.16,9.83,-9.62,-0.09,-2.13,9.85
-1.70,-9.65,0.13,9.80,-9.64,-0.08,-2.16,9.88
-1.71,-9.68,0.21,9.83,-9.64,-0.08,-2.13,9.87
-1.72,-9.66,0.19,9.82,-9.59,-0.12,-2.14,9.82
-1.73,-9.68,0.18,9.83,-9.60,-0.13,-2.14,9.84
-1.70,-9.62,0.14,9.77,-9.62,-0.08,-2.13,9.86
-1.75,-9.64,0.12,9.79,-9.62,-0.08,-2.15,9.85
-1.73,-9.64,0.12,9.79,-9.64,-0.11,-2.16,9.88
-1.73,-9.64,0.15,9.80,-9.62,-0.11,-2.17,9.86
-1.69,-9.66,0.16,9.80,-9.63,-0.10,-2.16,9.87
-1.70,-9.69,0.15,9.84,-9.64,-0.11,-2.16,9.88
-1.78,-9.66,0.18,9.82,-9.63,-0.06,-2.21,9.88
-1.72,-9.69,0.32,9.85,-9.63,-0.08,-2.17,9.87
-1.76,-9.70,0.34,9.87,-9.60,-0.14,-2.06,9.82
-1.68,-9.57,0.08,9.71,-9.65,-0.10,-2.26,9.91
-1.67,-9.60,0.10,9.74,-9.64,-0.11,-2.19,9.88
-1.66,-9.66,0.20,9.80,-9.63,-0.12,-2.09,9.85
-1.67,-9.64,0.19,9.79,-9.63,-0.09,-2.27,9.89
-1.76,-9.64,0.27,9.80,-9.52,-0.16,-2.22,9.77
-1.76,-9.64,0.25,9.80,-9.56,-0.11,-2.18,9.81
-1.76,-9.56,0.11,9.72,-9.56,-0.06,-2.09,9.79
-1.77,-9.61,0.09,9.77,-9.60,-0.07,-2.17,9.84
-1.75,-9.69,0.11,9.84,-9.65,-0.07,-2.13,9.88
-1.73,-9.67,0.15,9.82,-9.65,-0.08,-2.15,9.89
-1.69,-9.62,0.12,9.77,-9.64,-0.13,-2.16,9.88
-1.69,-9.64,0.12,9.79,-9.63,-0.11,-2.16,9.87
-1.71,-9.68,0.24,9.83,-9.65,-0.12,-2.17,9.89
-1.72,-9.67,0.31,9.82,-9.60,-0.14,-2.16,9.85
-1.72,-9.60,0.22,9.76,-9.59,-0.12,-2.18,9.83
-1.71,-9.64,0.15,9.79,-9.58,-0.12,-2.14,9.81
-1.72,-9.63,0.15,9.78,-9.57,-0.13,-2.19,9.82
-1.73,-9.64,0.11,9.79,-9.59,-0.11,-2.17,9.83
-1.67,-9.63,0.18,9.77,-9.62,-0.14,-2.14,9.86
-1.70,-9.61,0.16,9.76,-9.62,-0.13,-2.16,9.86
-1.71,-9.61,0.17,9.77,-9.63,-0.12,-2.15,9.87
-1.70,-9.65,0.16,9.80,-9.59,-0.13,-2.19,9.83
-1.73,-9.66,0.20,9.81,-9.60,-0.12,-2.16,9.84
-1.73,-9.67,0.15,9.82,-9.63,-0.12,-2.14,9.86
-1.72,-9.66,0.20,9.81,-9.60,-0.13,-2.16,9.84
-1.66,-9.68,0.11,9.82,-9.65,-0.11,-2.11,9.87
-1.70,-9.66,0.10,9.81,-9.68,-0.11,-2.14,9.91
-1.71,-9.73,0.24,9.88,-9.65,-0.13,-2.27,9.92
-1.70,-9.69,0.24,9.84,-9.68,-0.11,-2.12,9.91
-1.67,-9.64,0.16,9.78,-9.62,-0.14,-2.12,9.85
-1.76,-9.67,0.19,9.83,-9.63,-0.10,-2.16,9.88
-1.75,-9.63,0.20,9.79,-9.61,-0.10,-2.17,9.86
-1.72,-9.61,0.13,9.77,-9.61,-0.12,-2.18,9.85
-1.72,-9.65,0.13,9.81,-9.58,-0.12,-2.11,9.81
-1.71,-9.64,0.11,9.79,-9.60,-0.11,-2.12,9.83
-1.70,-9.62,0.09,9.77,-9.62,-0.13,-2.15,9.86
-1.71,-9.66,0.10,9.81,-9.59,-0.12,-2.14,9.83
-1.71,-9.65,0.10,9.80,-9.63,-0.13,-2.17,9.87
-1.69,-9.66,0.15,9.81,-9.60,-0.09,-2.17,9.85
-1.72,-9.68,0.14,9.84,-9.64,-0.12,-2.20,9.89
-1.72,-9.67,0.28,9.82,-9.63,-0.12,-2.13,9.86
-1.67,-9.65,0.04,9.79,-9.62,-0.10,-2.14,9.86
-1.72,-9.66,0.12,9.81,-9.60,-0.10,-2.14,9.84
-1.72,-9.67,0.18,9.82,-9.63,-0.12,-2.10,9.86
-1.75,-9.65,0.06,9.81,-9.64,-0.10,-2.12,9.87
-1.74,-9.68,0.15,9.84,-9.64,-0.10,-2.11,9.87
-1.73,-9.68,0.08,9.83,-9.66,-0.11,-2.12,9.89
-1.74,-9.68,0.11,9.83,-9.65,-0.12,-2.13,9.88
-1.72,-9.67,0.16,9.82,-9.66,-0.10,-2.12,9.89
-1.77,-9.69,0.20,9.85,-9.63,-0.10,-2.11,9.86
-1.73,-9.67,0.20,9.82,-9.61,-0.08,-2.13,9.84
-1.72,-9.66,0.15,9.82,-9.62,-0.10,-2.16,9.86
-1.73,-9.62,0.13,9.78,-9.60,-0.11,-2.14,9.84
-1.70,-9.63,0.13,9.78,-9.60,-0.11,-2.12,9.83
-1.71,-9.65,0.13,9.80,-9.60,-0.11,-2.14,9.84
-1.72,-9.64,0.15,9.79,-9.62,-0.11,-2.14,9.85
-1.69,-9.66,0.15,9.81,-9.60,-0.09,-2.12,9.84
-1.72,-9.66,0.07,9.82,-9.62,-0.08,-2.12,9.85
-1.71,-9.67,0.14,9.82,-9.63,-0.08,-2.14,9.87
-1.69,-9.65,0.07,9.80,-9.66,-0.08,-2.14,9.90
-1.73,-9.69,0.17,9.85,-9.64,-0.11,-2.11,9.87
-1.70,-9.65,0.11,9.80,-9.67,-0.10,-2.13,9.90
-1.75,-9.69,0.18,9.85,-9.66,-0.08,-2.13,9.90
-1.72,-9.64,0.08,9.79,-9.69,-0.09,-2.12,9.92
-1.73,-9.70,0.13,9.85,-9.66,-0.06,-2.12,9.89
-1.76,-9.68,0.17,9.84,-9.65,-0.09,-2.11,9.88
-1.74,-9.66,0.14,9.81,-9.65,-0.08,-2.12,9.88
-1.73,-9.70,0.09,9.86,-9.64,-0.10,-2.11,9.86
-1.74,-9.72,0.11,9.87,-9.62,-0.08,-2.13,9.86
-1.74,-9.70,0.12,9.85,-9.66,-0.09,-2.11,9.88
-1.70,-9.67,0.11,9.82,-9.64,-0.10,-2.08,9.86
-1.69,-9.64,0.10,9.79,-9.67,-0.13,-2.08,9.89
-1.72,-9.68,0.12,9.84,-9.68,-0.10,-2.17,9.92
-1.77,-9.70,0.26,9.86,-9.69,-0.10,-2.20,9.94
-1.74,-9.66,0.19,9.82,-9.62,-0.11,-2.01,9.83
-1.70,-9.57,0.09,9.72,-9.60,-0.09,-2.10,9.83
-1.68,-9.64,0.03,9.79,-9.60,-0.13,-2.15,9.84
-1.68,-9.72,0.13,9.86,-9.62,-0.12,-2.03,9.84
-1.66,-9.67,0.14,9.81,-9.68,-0.10,-2.11,9.90
-1.74,-9.69,0.22,9.85,-9.60,-0.10,-2.18,9.84
-1.76,-9.63,0.23,9.80,-9.61,-0.08,-2.07,9.83
-1.73,-9.60,0.21,9.75,-9.61,-0.07,-2.05,9.83
-1.73,-9.60,0.08,9.76,-9.58,-0.06,-2.08,9.81
-1.77,-9.68,0.10,9.85,-9.59,-0.07,-2.12,9.82
-1.73,-9.66,0.06,9.81,-9.61,-0.07,-2.11,9.84
-1.70,-9.67,0.08,9.82,-9.70,-0.10,-2.10,9.92
-1.68,-9.66,0.12,9.81,-9.68,-0.12,-2.10,9.90
-1.72,-9.73,0.21,9.89,-9.70,-0.08,-2.11,9.92
-1.73,-9.71,0.15,9.86,-9.68,-0.11,-2.07,9.90
-1.75,-9.66,0.18,9.82,-9.62,-0.09,-2.04,9.83
-1.72,-9.69,0.14,9.84,-9.64,-0.08,-2.10,9.87
-1.74,-9.63,0.14,9.79,-9.61,-0.09,-2.10,9.84
-1.72,-9.65,0.12,9.80,-9.63,-0.09,-2.07,9.85
-1.69,-9.60,0.09,9.75,-9.59,-0.10,-2.04,9.80
-1.72,-9.64,0.20,9.80,-9.63,-0.10,-2.07,9.85
-1.72,-9.62,0.12,9.78,-9.63,-0.11,-2.08,9.85
-1.69,-9.62,0.13,9.77,-9.60,-0.13,-2.07,9.82
-1.69,-9.65,0.20,9.79,-9.59,-0.11,-2.07,9.81
-1.72,-9.65,0.08,9.80,-9.64,-0.11,-2.10,9.87
-1.71,-9.64,0.11,9.80,-9.64,-0.11,-2.11,9.87
-1.72,-9.69,0.13,9.84,-9.62,-0.09,-2.07,9.84
-1.69,-9.69,0.17,9.84,-9.64,-0.08,-2.03,9.85
-1.75,-9.69,0.09,9.84,-9.66,-0.08,-2.10,9.89
-1.76,-9.75,0.15,9.90,-9.66,-0.08,-2.15,9.89
-1.71,-9.67,0.17,9.82,-9.69,-0.08,-1.98,9.89
-1.70,-9.69,0.16,9.84,-9.67,-0.12,-2.07,9.89
-1.71,-9.66,0.14,9.81,-9.62,-0.12,-2.06,9.84
-1.72,-9.65,-0.05,9.81,-9.65,-0.06,-2.09,9.87
-1.73,-9.66,0.04,9.82,-9.64,-0.05,-2.04,9.86
-1.71,-9.61,-0.08,9.76,-9.64,-0.07,-2.02,9.85
-1.69,-9.66,0.15,9.81,-9.65,-0.10,-2.03,9.86
-1.71,-9.65,0.10,9.80,-9.63,-0.09,-1.98,9.83
-1.73,-9.66,0.11,9.81,-9.63,-0.10,-2.05,9.85
-1.71,-9.66,0.09,9.81,-9.62,-0.09,-2.07,9.84
-1.73,-9.66,0.08,9.82,-9.65,-0.07,-2.08,9.87
-1.73,-9.68,0.11,9.83,-9.63,-0.09,-2.07,9.85
-1.71,-9.66,0.17,9.81,-9.65,-0.09,-2.05,9.87
-1.74,-9.70,0.31,9.86,-9.67,-0.08,-2.03,9.89
-1.69,-9.67,0.11,9.81,-9.65,-0.09,-2.04,9.87
-1.69,-9.64,0.12,9.79,-9.67,-0.06,-2.03,9.88
-1.71,-9.67,0.08,9.82,-9.67,-0.10,-2.03,9.89
-1.76,-9.68,0.12,9.84,-9.68,-0.09,-2.03,9.89
-1.73,-9.68,0.07,9.83,-9.65,-0.09,-2.05,9.87
-1.75,-9.67,0.07,9.83,-9.67,-0.09,-2.04,9.88
-1.72,-9.64,0.08,9.79,-9.68,-0.07,-2.05,9.89
-1.75,-9.67,0.09,9.83,-9.64,-0.09,-2.03,9.85
-1.72,-9.67,0.07,9.83,-9.63,-0.08,-2.06,9.85
-1.73,-9.70,0.26,9.86,-9.67,-0.06,-2.04,9.88
-1.69,-9.65,0.04,9.79,-9.66,-0.09,-2.06,9.87
-1.71,-9.67,0.04,9.82,-9.65,-0.08,-2.03,9.86
-1.70,-9.66,0.08,9.81,-9.64,-0.07,-2.04,9.85
-1.70,-9.66,0.10,9.81,-9.64,-0.09,-2.01,9.85
-1.71,-9.66,0.08,9.81,-9.64,-0.09,-2.07,9.86
-1.72,-9.65,0.13,9.80,-9.63,-0.11,-2.06,9.85
-1.71,-9.69,0.06,9.84,-9.63,-0.09,-2.04,9.84
-1.70,-9.63,0.05,9.78,-9.66,-0.09,-2.04,9.87
-1.72,-9.66,0.01,9.81,-9.67,-0.08,-2.03,9.88
-1.71,-9.66,0.06,9.81,-9.64,-0.07,-2.02,9.85
-1.73,-9.67,0.11,9.82,-9.68,-0.05,-2.00,9.89
-1.73,-9.67,0.05,9.82,-9.67,-0.04,-2.03,9.88
-1.73,-9.67,0.07,9.83,-9.67,-0.06,-2.04,9.88
-1.71,-9.66,0.09,9.81,-9.67,-0.05,-2.04,9.89
-1.74,-9.66,0.06,9.82,-9.67,-0.06,-2.07,9.89
-1.72,-9.67,0.08,9.82,-9.63,-0.06,-2.04,9.85
-1.70,-9.67,0.08,9.82,-9.63,-0.06,-2.04,9.84
-1.71,-9.66,0.08,9.81,-9.64,-0.07,-2.01,9.85
-1.72,-9.66,0.07,9.81,-9.65,-0.07,-2.05,9.87
-1.75,-9.65,0.05,9.80,-9.64,-0.08,-1.99,9.84
-1.72,-9.66,0.05,9.82,-9.64,-0.08,-2.03,9.85
-1.67,-9.63,0.04,9.78,-9.59,-0.07,-1.99,9.79
-1.68,-9.68,0.06,9.82,-9.66,-0.07,-2.05,9.87
-1.79,-9.73,0.14,9.89,-9.69,-0.02,-2.10,9.91
-1.76,-9.71,0.26,9.87,-9.64,-0.06,-1.95,9.83
-1.74,-9.61,0.09,9.77,-9.61,-0.05,-1.96,9.81
-1.66,-9.64,0.01,9.78,-9.67,-0.04,-2.14,9.90
-1.65,-9.74,-0.15,9.88,-9.63,-0.11,-1.91,9.82
-1.68,-9.66,-0.18,9.81,-9.68,-0.10,-1.98,9.88
-1.73,-9.72,0.06,9.88,-9.71,-0.06,-2.11,9.93
-1.80,-9.71,0.20,9.87,-9.61,-0.05,-2.07,9.83
-1.74,-9.59,0.16,9.75,-9.63,-0.06,-1.97,9.83
-1.75,-9.62,0.06,9.77,-9.63,-0.07,-1.97,9.83
-1.74,-9.60,0.01,9.76,-9.63,-0.07,-2.04,9.84
-1.74,-9.67,0.03,9.82,-9.66,-0.04,-2.04,9.88
-1.73,-9.66,0.06,9.81,-9.68,-0.04,-2.01,9.89
-1.71,-9.71,0.06,9.86,-9.69,-0.04,-2.01,9.90
-1.70,-9.65,-0.00,9.79,-9.65,-0.04,-1.97,9.85
-1.72,-9.70,0.07,9.85,-9.67,-0.07,-2.00,9.88
-1.72,-9.71,0.07,9.86,-9.65,-0.07,-1.98,9.85
-1.76,-9.66,0.07,9.82,-9.66,-0.06,-1.98,9.86
-1.75,-9.67,0.06,9.83,-9.63,-0.04,-1.98,9.83
-1.73,-9.65,0.05,9.80,-9.66,-0.04,-1.98,9.86
-1.74,-9.67,0.06,9.82,-9.63,-0.05,-1.99,9.83
-1.73,-9.61,0.04,9.77,-9.65,-0.06,-1.97,9.85
-1.69,-9.63,0.05,9.78,-9.63,-0.05,-1.98,9.84
-1.70,-9.64,0.09,9.79,-9.63,-0.05,-2.00,9.84
-1.68,-9.66,0.04,9.81,-9.66,-0.05,-2.01,9.87
-1.70,-9.67,0.02,9.82,-9.65,-0.07,-2.00,9.86
-1.72,-9.65,0.03,9.80,-9.64,-0.05,-2.04,9.86
-1.77,-9.67,0.07,9.83,-9.63,-0.07,-2.01,9.84
-1.69,-9.67,-0.08,9.82,-9.66,-0.06,-2.00,9.87
-1.76,-9.68,0.03,9.84,-9.66,-0.02,-1.94,9.86
-1.72,-9.58,-0.14,9.74,-9.71,-0.03,-2.04,9.92
-1.73,-9.75,0.06,9.90,-9.67,-0.05,-2.01,9.87
-1.69,-9.68,0.05,9.82,-9.69,-0.06,-2.00,9.90
-1.70,-9.64,0.01,9.79,-9.65,-0.10,-1.95,9.84
-1.74,-9.64,0.02,9.80,-9.65,-0.06,-2.00,9.86
-1.75,-9.63,0.04,9.79,-9.62,-0.03,-1.99,9.83
-1.75,-9.64,0.07,9.80,-9.64,-0.05,-2.05,9.86
-1.73,-9.63,0.06,9.78,-9.63,-0.00,-1.98,9.83
-1.70,-9.62,0.05,9.77,-9.65,-0.06,-1.96,9.85
-1.71,-9.66,0.04,9.81,-9.68,-0.08,-1.97,9.87
-1.69,-9.70,0.04,9.85,-9.67,-0.05,-2.00,9.88
-1.73,-9.67,0.02,9.82,-9.68,-0.04,-2.00,9.88
-1.71,-9.67,0.01,9.82,-9.66,-0.06,-2.01,9.86
-1.71,-9.65,0.01,9.80,-9.66,-0.06,-2.01,9.86
-1.71,-9.70,0.03,9.85,-9.66,-0.05,-1.98,9.86
-1.74,-9.67,0.05,9.83,-9.67,-0.06,-1.97,9.87
-1.72,-9.63,0.05,9.78,-9.63,-0.03,-1.99,9.84
-1.70,-9.64,0.04,9.79,-9.65,-0.06,-2.02,9.86
-1.72,-9.67,0.03,9.83,-9.62,-0.06,-2.00,9.82
-1.72,-9.64,0.03,9.79,-9.68,-0.06,-1.98,9.88
-1.74,-9.66,0.08,9.81,-9.65,-0.06,-2.02,9.86
-1.73,-9.68,0.08,9.84,-9.66,-0.04,-2.01,9.86
-1.73,-9.65,0.07,9.81,-9.66,-0.03,-2.00,9.86
-1.73,-9.66,0.06,9.81,-9.64,-0.05,-1.98,9.84
-1.72,-9.66,0.06,9.82,-9.65,-0.04,-2.00,9.86
-1.70,-9.68,0.06,9.83,-9.64,-0.04,-1.98,9.85
-1.74,-9.67,0.04,9.83,-9.66,-0.05,-1.97,9.86
-1.72,-9.63,0.02,9.79,-9.67,-0.06,-1.97,9.87
-1.73,-9.66,0.06,9.82,-9.64,-0.05,-1.99,9.85
-1.73,-9.64,0.04,9.80,-9.64,-0.07,-2.01,9.85
-1.70,-9.68,0.08,9.83,-9.66,-0.05,-2.02,9.87
-1.68,-9.67,0.04,9.81,-9.63,-0.07,-1.98,9.83
-1.73,-9.67,0.07,9.82,-9.67,-0.05,-2.01,9.88
-1.73,-9.68,0.06,9.83,-9.65,-0.05,-2.00,9.86
-1.74,-9.65,0.03,9.80,-9.65,-0.08,-1.99,9.85
-1.73,-9.63,0.08,9.79,-9.67,-0.03,-1.98,9.87
-1.73,-9.66,0.02,9.82,-9.68,-0.04,-2.01,9.88
-1.74,-9.64,0.04,9.80,-9.63,-0.04,-1.99,9.83
-1.74,-9.64,0.04,9.80,-9.69,-0.06,-2.01,9.90
-1.74,-9.68,0.02,9.84,-9.67,-0.04,-2.00,9.87
-1.71,-9.65,0.03,9.80,-9.65,-0.05,-2.00,9.86
-1.71,-9.66,0.03,9.81,-9.66,-0.04,-2.01,9.86
-1.70,-9.69,0.01,9.83,-9.65,-0.08,-1.98,9.85
-1.70,-9.66,0.04,9.81,-9.66,-0.02,-2.01,9.87
-1.72,-9.65,0.02,9.80,-9.67,-0.05,-1.98,9.87
-1.75,-9.67,0.01,9.83,-9.68,-0.04,-2.04,9.90
-1.74,-9.69,0.03,9.85,-9.67,-0.05,-2.00,9.87
-1.71,-9.67,0.02,9.82,-9.66,-0.03,-2.01,9.86
-1.66,-9.67,0.01,9.81,-9.66,-0.01,-2.02,9.87
-1.76,-9.71,0.11,9.86,-9.68,-0.04,-2.08,9.90
-1.77,-9.71,0.18,9.87,-9.66,-0.05,-1.98,9.86
-1.73,-9.60,0.05,9.76,-9.65,-0.05,-1.97,9.85
-1.66,-9.56,-0.05,9.70,-9.68,-0.05,-2.09,9.90
-1.64,-9.71,0.02,9.85,-9.60,-0.08,-1.86,9.77
-1.66,-9.67,-0.03,9.81,-9.65,-0.10,-1.95,9.85
-1.74,-9.70,0.10,9.86,-9.66,-0.06,-2.05,9.88
-1.79,-9.68,0.17,9.85,-9.67,-0.07,-2.07,9.89
-1.76,-9.65,0.17,9.81,-9.65,-0.02,-2.01,9.86
-1.74,-9.62,0.03,9.78,-9.65,-0.05,-1.95,9.85
-1.75,-9.63,-0.01,9.79,-9.63,-0.04,-2.01,9.83
-1.76,-9.67,0.02,9.83,-9.66,-0.01,-2.05,9.88
-1.73,-9.68,0.05,9.83,-9.70,-0.02,-2.05,9.92
-1.70,-9.69,0.07,9.83,-9.74,-0.04,-2.02,9.94
-1.66,-9.75,0.06,9.89,-9.71,-0.05,-2.04,9.92
-1.68,-9.75,0.08,9.89,-9.66,-0.06,-2.02,9.87
-1.71,-9.73,0.08,9.88,-9.66,-0.08,-2.02,9.87
-1.71,-9.71,0.08,9.86,-9.64,-0.06,-2.03,9.85
-1.73,-9.65,0.07,9.80,-9.63,-0.06,-2.03,9.84
-1.72,-9.65,0.04,9.81,-9.61,-0.05,-2.05,9.82
-1.69,-9.62,0.06,9.77,-9.63,-0.07,-2.04,9.85
-1.73,-9.73,0.35,9.89,-9.60,-0.08,-2.04,9.82
-1.70,-9.56,0.14,9.72,-9.64,-0.10,-2.06,9.86
-1.66,-9.61,0.10,9.75,-9.63,-0.10,-2.03,9.84
-1.68,-9.64,0.04,9.79,-9.63,-0.08,-2.08,9.85
-1.72,-9.62,0.03,9.77,-9.64,-0.07,-2.08,9.86
-1.75,-9.66,0.12,9.82,-9.63,-0.04,-2.07,9.85
-1.71,-9.65,0.09,9.80,-9.64,-0.05,-2.07,9.86
-1.70,-9.68,0.07,9.83,-9.64,-0.08,-2.02,9.85
-1.73,-9.64,0.04,9.80,-9.63,-0.06,-2.02,9.84
-1.76,-9.81,0.19,9.97,-9.65,-0.07,-2.09,9.88
-1.68,-9.64,-0.05,9.79,-9.74,-0.07,-2.07,9.96
-1.70,-9.67,0.20,9.82,-9.64,-0.10,-2.08,9.86
-1.73,-9.66,0.36,9.82,-9.66,-0.10,-2.09,9.88
-1.72,-9.63,0.16,9.79,-9.62,-0.09,-2.07,9.84
-1.73,-9.64,0.06,9.80,-9.62,-0.09,-2.09,9.85
-1.69,-9.67,0.14,9.82,-9.63,-0.08,-2.10,9.86
-1.68,-9.64,0.12,9.79,-9.60,-0.09,-2.05,9.82
-1.71,-9.67,0.15,9.82,-9.61,-0.11,-2.09,9.84
-1.66,-9.67,0.11,9.81,-9.62,-0.11,-2.05,9.83
-1.68,-9.64,0.09,9.78,-9.64,-0.11,-2.07,9.86
-1.68,-9.66,0.17,9.81,-9.62,-0.08,-2.08,9.84
-1.67,-9.68,0.13,9.82,-9.63,-0.10,-2.10,9.85
-1.72,-9.66,0.14,9.81,-9.62,-0.11,-2.09,9.84
-1.72,-9.70,0.18,9.85,-9.66,-0.12,-2.10,9.88
-1.69,-9.63,0.07,9.77,-9.62,-0.11,-2.07,9.84
-1.71,-9.67,0.18,9.82,-9.64,-0.07,-2.10,9.87
-1.70,-9.63,0.15,9.78,-9.64,-0.09,-2.10,9.87
-1.70,-9.65,0.11,9.80,-9.64,-0.08,-2.10,9.87
-1.70,-9.64,0.09,9.79,-9.63,-0.11,-2.11,9.86
-1.73,-9.66,0.12,9.82,-9.61,-0.10,-2.10,9.84
-1.70,-9.68,0.18,9.83,-9.60,-0.08,-2.12,9.83
-1.73,-9.62,0.12,9.78,-9.62,-0.09,-2.10,9.85
-1.73,-9.62,0.16,9.78,-9.62,-0.10,-2.13,9.86
-1.73,-9.64,0.17,9.80,-9.63,-0.07,-2.11,9.86
-1.71,-9.65,0.17,9.80,-9.63,-0.11,-2.13,9.87
-1.70,-9.65,0.17,9.80,-9.62,-0.12,-2.11,9.85
-1.68,-9.66,0.11,9.81,-9.61,-0.11,-2.13,9.85
-1.69,-9.65,0.01,9.79,-9.63,-0.12,-2.12,9.86
-1.67,-9.63,0.18,9.78,-9.63,-0.10,-2.12,9.86
-1.67,-9.65,0.21,9.80,-9.61,-0.11,-2.14,9.85
-1.67,-9.65,0.15,9.80,-9.64,-0.11,-2.09,9.86
-1.68,-9.66,0.16,9.81,-9.61,-0.12,-2.12,9.84
-1.68,-9.66,0.15,9.81,-9.63,-0.10,-2.11,9.86
-1.70,-9.65,0.18,9.80,-9.65,-0.10,-2.16,9.89
-1.72,-9.63,0.15,9.78,-9.61,-0.12,-2.16,9.85
-1.72,-9.67,0.16,9.83,-9.66,-0.09,-2.15,9.90
-1.71,-9.65,0.14,9.80,-9.61,-0.09,-2.12,9.84
-1.73,-9.67,0.18,9.82,-9.64,-0.09,-2.18,9.89
-1.71,-9.67,0.17,9.82,-9.63,-0.10,-2.15,9.87
-1.72,-9.68,0.20,9.84,-9.63,-0.12,-2.14,9.87
-1.72,-9.66,0.20,9.81,-9.63,-0.09,-2.18,9.87
-1.73,-9.69,0.17,9.84,-9.62,-0.12,-2.14,9.86
-1.72,-9.65,0.09,9.80,-9.65,-0.12,-2.16,9.89
-1.68,-9.66,0.10,9.81,-9.62,-0.09,-2.14,9.86
-1.70,-9.67,0.12,9.82,-9.61,-0.09,-2.14,9.84
-1.75,-9.74,0.18,9.90,-9.64,-0.10,-2.20,9.89
-1.72,-9.68,0.30,9.84,-9.62,-0.12,-2.22,9.87
-1.74,-9.69,0.38,9.86,-9.58,-0.10,-2.14,9.81
-1.68,-9.54,0.10,9.69,-9.63,-0.08,-2.24,9.89
-1.72,-9.63,0.10,9.78,-9.60,-0.10,-2.15,9.84
-1.62,-9.68,0.15,9.81,-9.63,-0.11,-2.15,9.86
-1.66,-9.63,0.13,9.78,-9.59,-0.12,-2.24,9.85
-1.71,-9.64,0.23,9.79,-9.56,-0.15,-2.18,9.81
-1.76,-9.65,0.27,9.81,-9.56,-0.07,-2.20,9.81
-1.75,-9.59,0.14,9.75,-9.62,-0.05,-2.15,9.86
-1.73,-9.65,0.07,9.81,-9.58,-0.07,-2.16,9.82
-1.74,-9.68,0.11,9.84,-9.66,-0.10,-2.16,9.90
-1.70,-9.69,0.14,9.84,-9.68,-0.11,-2.11,9.91
-1.64,-9.68,0.17,9.82,-9.65,-0.11,-2.13,9.88
-1.66,-9.70,0.15,9.84,-9.69,-0.12,-2.16,9.93
-1.70,-9.70,0.18,9.85,-9.63,-0.11,-2.14,9.86
-1.73,-9.69,0.17,9.84,-9.63,-0.12,-2.16,9.87
-1.74,-9.64,0.16,9.80,-9.58,-0.11,-2.13,9.82
-1.74,-9.64,0.18,9.80,-9.59,-0.11,-2.14,9.82
-1.70,-9.63,0.16,9.78,-9.60,-0.08,-2.11,9.83
-1.71,-9.62,0.16,9.77,-9.62,-0.10,-2.12,9.85
-1.69,-9.63,0.15,9.78,-9.60,-0.12,-2.10,9.83
-1.67,-9.68,0.14,9.82,-9.62,-0.11,-2.10,9.84
-1.67,-9.66,0.14,9.80,-9.60,-0.13,-2.13,9.84
-1.69,-9.66,0.15,9.81,-9.65,-0.10,-2.10,9.88
-1.74,-9.70,0.13,9.85,-9.66,-0.12,-2.15,9.90
-1.74,-9.62,0.12,9.78,-9.63,-0.10,-2.12,9.86
-1.66,-9.66,0.13,9.81,-9.62,-0.09,-2.09,9.84
-1.73,-9.66,0.08,9.82,-9.68,-0.07,-2.18,9.93
-1.73,-9.73,0.18,9.88,-9.63,-0.10,-2.20,9.88
-1.71,-9.68,0.20,9.83,-9.69,-0.10,-2.10,9.91
-1.69,-9.67,0.11,9.81,-9.64,-0.13,-2.13,9.88
-1.73,-9.67,0.11,9.82,-9.63,-0.12,-2.13,9.86
-1.75,-9.68,0.18,9.84,-9.61,-0.07,-2.14,9.84
-1.74,-9.66,0.15,9.82,-9.64,-0.08,-2.13,9.87
-1.71,-9.63,0.09,9.78,-9.62,-0.10,-2.12,9.85
-1.70,-9.62,0.03,9.77,-9.62,-0.11,-2.07,9.84
-1.72,-9.68,0.10,9.83,-9.64,-0.07,-2.13,9.87
-1.68,-9.66,0.13,9.80,-9.61,-0.10,-2.13,9.84
-1.68,-9.62,0.13,9.77,-9.61,-0.12,-2.11,9.84
-1.69,-9.66,0.12,9.80,-9.61,-0.11,-2.13,9.85
-1.68,-9.62,0.07,9.77,-9.60,-0.08,-2.11,9.83
-1.72,-9.62,0.23,9.78,-9.62,-0.07,-2.12,9.85
-1.72,-9.65,0.19,9.80,-9.61,-0.06,-2.11,9.84
-1.70,-9.66,0.07,9.80,-9.63,-0.09,-2.12,9.86
-1.74,-9.65,0.07,9.80,-9.62,-0.10,-2.09,9.84
-1.71,-9.67,0.14,9.82,-9.65,-0.09,-2.11,9.88
-1.72,-9.63,0.15,9.78,-9.66,-0.10,-2.09,9.88
-1.72,-9.70,0.26,9.85,-9.64,-0.11,-2.08,9.86
-1.70,-9.67,0.08,9.82,-9.66,-0.10,-2.10,9.88
-1.71,-9.68,0.17,9.83,-9.62,-0.10,-2.09,9.84
-1.72,-9.66,0.07,9.81,-9.63,-0.09,-2.11,9.86
-1.72,-9.65,0.11,9.80,-9.60,-0.09,-2.09,9.83
-1.71,-9.62,0.11,9.77,-9.63,-0.07,-2.09,9.86
-1.69,-9.62,0.13,9.77,-9.63,-0.09,-2.11,9.86
-1.71,-9.66,0.21,9.81,-9.64,-0.11,-2.09,9.87
-1.71,-9.65,0.10,9.80,-9.62,-0.09,-2.10,9.85
-1.68,-9.66,0.11,9.80,-9.63,-0.09,-2.15,9.87
-1.69,-9.66,0.21,9.81,-9.62,-0.09,-2.07,9.84
-1.71,-9.68,0.09,9.83,-9.64,-0.06,-2.09,9.87
-1.71,-9.66,0.10,9.81,-9.65,-0.07,-2.10,9.88
-1.69,-9.67,0.12,9.82,-9.67,-0.09,-2.10,9.89
-1.72,-9.70,0.13,9.85,-9.65,-0.08,-2.10,9.88
-1.72,-9.69,0.17,9.85,-9.66,-0.09,-2.05,9.88
-1.71,-9.67,0.11,9.82,-9.65,-0.08,-2.04,9.86
-1.72,-9.67,0.12,9.82,-9.66,-0.06,-2.06,9.88
-1.72,-9.66,0.10,9.81,-9.65,-0.08,-2.08,9.87
-1.72,-9.66,0.09,9.82,-9.63,-0.09,-2.10,9.85
-1.73,-9.68,0.12,9.84,-9.65,-0.06,-2.09,9.87
-1.68,-9.62,0.07,9.76,-9.63,-0.08,-2.05,9.84
-1.67,-9.62,0.11,9.76,-9.64,-0.09,-2.07,9.86
-1.75,-9.69,0.07,9.84,-9.61,-0.07,-2.10,9.84
-1.79,-9.67,0.21,9.84,-9.68,-0.04,-2.18,9.92
-1.74,-9.68,0.25,9.83,-9.63,-0.06,-2.01,9.83
-1.68,-9.57,0.11,9.71,-9.61,-0.08,-2.10,9.84
-1.66,-9.57,0.01,9.71,-9.66,-0.06,-2.13,9.90
-1.68,-9.71,0.03,9.86,-9.64,-0.11,-1.96,9.83
-1.68,-9.70,-0.03,9.84,-9.68,-0.07,-2.10,9.91
-1.79,-9.73,0.14,9.89,-9.65,-0.09,-2.17,9.89
-1.75,-9.65,0.25,9.81,-9.60,-0.04,-2.08,9.82
-1.76,-9.60,0.24,9.77,-9.63,-0.06,-2.04,9.85
-1.73,-9.60,0.04,9.75,-9.64,-0.06,-2.03,9.85
-1.77,-9.64,0.04,9.80,-9.63,-0.06,-2.06,9.85
-1.77,-9.68,0.21,9.84,-9.66,-0.06,-2.04,9.87
-1.74,-9.65,0.07,9.81,-9.70,-0.03,-2.07,9.92
-1.70,-9.69,0.11,9.84,-9.69,-0.07,-2.09,9.91
-1.67,-9.68,0.09,9.82,-9.68,-0.07,-2.05,9.90
-1.72,-9.67,0.14,9.82,-9.67,-0.08,-2.06,9.89
-1.73,-9.67,0.10,9.82,-9.64,-0.08,-2.02,9.85
-1.74,-9.68,0.09,9.83,-9.61,-0.07,-2.03,9.83
-1.71,-9.66,0.11,9.81,-9.64,-0.05,-2.01,9.85
-1.73,-9.66,0.08,9.81,-9.65,-0.04,-2.02,9.86
-1.72,-9.64,-0.06,9.79,-9.65,-0.07,-2.01,9.86
-1.73,-9.65,0.12,9.80,-9.65,-0.09,-2.00,9.85
-1.73,-9.64,0.08,9.79,-9.63,-0.09,-2.01,9.84
-1.68,-9.69,0.09,9.83,-9.67,-0.07,-2.01,9.88
-1.70,-9.66,0.09,9.80,-9.66,-0.06,-2.05,9.88
-1.74,-9.67,0.07,9.83,-9.67,-0.08,-2.04,9.88
-1.73,-9.65,0.09,9.80,-9.68,-0.05,-2.02,9.89
-1.71,-9.66,0.07,9.81,-9.66,-0.09,-2.02,9.86
-1.73,-9.66,0.04,9.82,-9.64,-0.08,-2.00,9.84
-1.75,-9.67,0.16,9.83,-9.70,-0.04,-2.05,9.91
-1.77,-9.72,0.20,9.88,-9.68,-0.06,-1.98,9.88
-1.71,-9.67,0.07,9.82,-9.69,-0.05,-1.99,9.89
-1.74,-9.68,0.16,9.84,-9.64,-0.07,-2.02,9.85
-1.73,-9.64,0.10,9.80,-9.60,-0.06,-2.06,9.82
-1.76,-9.65,0.04,9.80,-9.60,-0.08,-2.05,9.82
-1.76,-9.64,0.06,9.80,-9.63,-0.03,-2.04,9.84
-1.72,-9.67,0.14,9.82,-9.65,-0.05,-2.02,9.86
-1.69,-9.66,0.08,9.80,-9.65,-0.07,-2.01,9.86
-1.70,-9.64,0.05,9.79,-9.67,-0.09,-2.00,9.88
-1.72,-9.68,0.08,9.83,-9.67,-0.04,-2.05,9.88
-1.72,-9.67,0.03,9.83,-9.65,-0.05,-2.04,9.86
-1.71,-9.70,0.05,9.85,-9.65,-0.04,-2.07,9.87
-1.71,-9.70,0.08,9.85,-9.67,-0.06,-2.04,9.88
-1.72,-9.66,0.11,9.81,-9.64,-0.06,-2.03,9.85
-1.72,-9.65,0.10,9.80,-9.63,-0.06,-2.03,9.84
-1.69,-9.63,0.05,9.78,-9.65,-0.04,-2.01,9.86
-1.74,-9.65,0.09,9.80,-9.67,-0.04,-2.03,9.88
-1.70,-9.66,0.04,9.80,-9.67,-0.08,-2.04,9.88
-1.71,-9.67,0.08,9.82,-9.67,-0.07,-2.02,9.88
-1.72,-9.68,0.07,9.83,-9.66,-0.08,-2.03,9.87
-1.71,-9.67,0.11,9.82,-9.64,-0.09,-2.01,9.84
-1.73,-9.68,0.09,9.83,-9.65,-0.06,-2.01,9.86
-1.72,-9.66,0.08,9.81,-9.67,-0.08,-2.01,9.88
-1.73,-9.68,0.08,9.83,-9.66,-0.07,-2.03,9.87
-1.69,-9.67,0.06,9.81,-9.65,-0.07,-2.01,9.85
-1.69,-9.63,0.05,9.78,-9.62,-0.04,-2.07,9.84
-1.73,-9.65,0.05,9.80,-9.62,-0.05,-2.04,9.84
-1.71,-9.65,0.06,9.80,-9.66,-0.06,-2.04,9.87
-1.72,-9.64,0.04,9.79,-9.67,-0.04,-2.02,9.88
-1.72,-9.65,0.05,9.81,-9.65,-0.07,-2.03,9.86
-1.72,-9.68,0.06,9.83,-9.65,-0.11,-2.04,9.87
-1.71,-9.63,0.14,9.78,-9.66,-0.07,-2.00,9.87
-1.68,-9.63,0.11,9.77,-9.64,-0.08,-2.05,9.86
-1.70,-9.69,0.04,9.84,-9.64,-0.09,-1.99,9.85
-1.73,-9.68,0.10,9.84,-9.65,-0.09,-2.00,9.86
-1.70,-9.66,0.06,9.81,-9.66,-0.08,-2.03,9.87
-1.72,-9.66,0.08,9.82,-9.66,-0.04,-2.00,9.86
-1.73,-9.64,0.07,9.79,-9.65,-0.05,-2.03,9.86
-1.74,-9.68,0.04,9.83,-9.64,-0.04,-2.02,9.85
-1.76,-9.66,0.03,9.82,-9.66,-0.06,-2.03,9.87
-1.71,-9.68,0.04,9.83,-9.65,-0.06,-2.02,9.86
-1.73,-9.66,0.05,9.82,-9.66,-0.08,-2.02,9.86
-1.68,-9.62,0.05,9.77,-9.65,-0.07,-1.99,9.85
-1.68,-9.67,0.04,9.81,-9.65,-0.05,-2.02,9.86
-1.76,-9.72,0.11,9.88,-9.66,-0.05,-2.10,9.89
-1.75,-9.69,0.20,9.85,-9.63,-0.06,-1.98,9.83
-1.67,-9.57,0.04,9.71,-9.62,-0.06,-2.00,9.82
-1.67,-9.59,-0.08,9.73,-9.67,-0.06,-2.17,9.91
-1.65,-9.74,0.01,9.88,-9.62,-0.08,-1.86,9.80
-1.65,-9.68,-0.02,9.82,-9.68,-0.09,-2.02,9.89
-1.75,-9.70,0.10,9.86,-9.64,-0.07,-2.14,9.88
-1.78,-9.70,0.17,9.86,-9.62,-0.04,-2.06,9.84
-1.77,-9.63,0.16,9.79,-9.65,-0.05,-2.01,9.85
-1.74,-9.60,0.04,9.76,-9.63,-0.07,-1.98,9.83
-1.70,-9.63,-0.01,9.78,-9.63,-0.07,-2.03,9.85
-1.73,-9.66,0.02,9.81,-9.66,-0.04,-2.01,9.87
-1.70,-9.66,0.08,9.81,-9.70,-0.06,-2.01,9.91
-1.70,-9.56,0.10,9.71,-9.68,-0.07,-2.01,9.88
-1.71,-9.72,0.16,9.87,-9.68,-0.08,-1.98,9.88
-1.72,-9.73,0.06,9.88,-9.69,-0.08,-1.97,9.89
-1.72,-9.67,0.10,9.82,-9.66,-0.04,-1.97,9.86
-1.75,-9.64,0.05,9.80,-9.64,-0.07,-1.99,9.84
-1.73,-9.63,0.03,9.78,-9.66,-0.05,-1.96,9.86
-1.71,-9.66,0.01,9.81,-9.63,-0.07,-2.01,9.84
-1.70,-9.64,0.02,9.79,-9.64,-0.07,-1.96,9.84
-1.71,-9.64,0.04,9.79,-9.61,-0.11,-1.89,9.80
-1.67,-9.64,0.05,9.78,-9.65,-0.06,-2.00,9.85
-1.68,-9.65,0.07,9.79,-9.64,-0.07,-2.00,9.85
-1.70,-9.67,0.06,9.82,-9.64,-0.07,-2.01,9.84
-1.72,-9.65,0.04,9.80,-9.67,-0.05,-1.98,9.87
-1.73,-9.66,0.04,9.81,-9.65,-0.05,-1.98,9.85
-1.72,-9.66,0.05,9.82,-9.68,-0.07,-2.01,9.88
-1.71,-9.68,0.01,9.83,-9.68,-0.08,-2.00,9.88
-1.71,-9.67,0.03,9.82,-9.66,-0.06,-1.96,9.85
-1.71,-9.67,0.06,9.83,-9.66,-0.06,-2.03,9.87
-1.71,-9.73,0.11,9.88,-9.69,-0.06,-1.99,9.90
-1.66,-9.64,0.07,9.79,-9.68,-0.08,-2.01,9.89
-1.68,-9.66,0.04,9.80,-9.63,-0.08,-1.97,9.83
-1.75,-9.64,-0.14,9.80,-9.63,-0.08,-2.01,9.84
-1.76,-9.65,-0.04,9.80,-9.66,-0.04,-2.02,9.87
-1.72,-9.65,0.01,9.80,-9.65,-0.04,-2.04,9.86
-1.68,-9.66,0.03,9.80,-9.62,-0.06,-1.99,9.83
-1.66,-9.67,0.01,9.81,-9.66,-0.06,-1.96,9.86
-1.69,-9.65,-0.00,9.79,-9.63,-0.06,-1.96,9.83
-1.69,-9.67,0.02,9.82,-9.68,-0.05,-1.98,9.88
-1.67,-9.67,0.00,9.82,-9.67,-0.04,-2.00,9.88
-1.70,-9.68,0.08,9.83,-9.66,-0.06,-2.02,9.87
-1.71,-9.66,0.02,9.81,-9.67,-0.08,-1.99,9.87
-1.70,-9.65,0.04,9.80,-9.66,-0.07,-1.99,9.87
-1.70,-9.66,0.07,9.80,-9.68,-0.07,-2.01,9.89
-1.68,-9.65,0.03,9.79,-9.65,-0.07,-2.02,9.86
-1.75,-9.64,0.04,9.80,-9.67,-0.06,-1.99,9.88
-1.72,-9.65,0.02,9.80,-9.68,-0.08,-2.01,9.89
-1.70,-9.67,-0.00,9.82,-9.67,-0.07,-2.00,9.88
-1.72,-9.67,0.02,9.82,-9.66,-0.08,-2.00,9.87
-1.71,-9.67,0.05,9.82,-9.66,-0.07,-2.02,9.87
-1.71,-9.68,0.05,9.83,-9.65,-0.09,-1.99,9.86
-1.73,-9.65,0.05,9.81,-9.65,-0.06,-2.01,9.86
-1.68,-9.67,0.03,9.82,-9.64,-0.05,-1.98,9.84
-1.69,-9.66,0.02,9.81,-9.67,-0.06,-2.00,9.88
-1.69,-9.64,0.05,9.79,-9.62,-0.07,-2.02,9.83
-1.71,-9.66,0.05,9.81,-9.65,-0.07,-2.04,9.86
-1.71,-9.68,0.05,9.83,-9.66,-0.07,-1.99,9.87
-1.73,-9.66,0.06,9.82,-9.67,-0.06,-1.98,9.87
-1.69,-9.66,0.05,9.81,-9.68,-0.06,-1.99,9.89
-1.71,-9.65,0.04,9.80,-9.66,-0.08,-1.99,9.87
-1.70,-9.65,0.04,9.80,-9.66,-0.06,-2.01,9.86
-1.70,-9.68,0.03,9.83,-9.64,-0.06,-1.98,9.84
-1.72,-9.65,0.03,9.81,-9.66,-0.06,-1.99,9.87
-1.71,-9.67,0.03,9.82,-9.67,-0.06,-1.99,9.87
-1.71,-9.68,0.01,9.83,-9.64,-0.07,-2.01,9.84
-1.71,-9.66,0.01,9.81,-9.65,-0.05,-1.99,9.85
-1.72,-9.65,0.04,9.81,-9.66,-0.04,-2.03,9.87
-1.70,-9.65,0.02,9.80,-9.65,-0.04,-2.01,9.86
-1.70,-9.65,0.01,9.80,-9.68,-0.05,-2.03,9.89
-1.71,-9.66,0.03,9.81,-9.66,-0.06,-1.98,9.86
-1.70,-9.66,0.05,9.81,-9.66,-0.08,-2.01,9.87
-1.71,-9.66,0.06,9.81,-9.68,-0.05,-1.99,9.88
-1.70,-9.66,0.04,9.81,-9.64,-0.06,-2.00,9.85
-1.71,-9.67,0.04,9.82,-9.64,-0.07,-2.02,9.85
-1.73,-9.68,0.05,9.83,-9.66,-0.04,-2.01,9.87
-1.69,-9.67,0.02,9.81,-9.62,-0.08,-2.01,9.83
-1.64,-9.63,0.00,9.77,-9.64,-0.06,-2.00,9.84
-1.70,-9.67,0.00,9.82,-9.65,-0.06,-2.04,9.87
-1.79,-9.68,0.13,9.85,-9.67,-0.07,-2.08,9.89
-1.76,-9.67,0.18,9.83,-9.61,-0.03,-1.91,9.80
-1.68,-9.54,-0.03,9.68,-9.66,-0.06,-2.05,9.87
-1.65,-9.69,-0.07,9.83,-9.65,-0.06,-1.96,9.85
-1.68,-9.71,-0.01,9.86,-9.63,-0.06,-1.87,9.81
-1.69,-9.66,-0.03,9.81,-9.69,-0.04,-2.01,9.90
-1.77,-9.75,0.08,9.91,-9.66,-0.05,-2.11,9.88
-1.75,-9.63,0.14,9.79,-9.63,-0.04,-2.06,9.85
-1.76,-9.62,0.06,9.78,-9.61,-0.07,-1.97,9.81
-1.73,-9.60,-0.02,9.76,-9.64,-0.07,-1.99,9.84
-1.73,-9.63,-0.03,9.78,-9.64,-0.03,-2.02,9.85
-1.76,-9.66,0.04,9.82,-9.66,-0.01,-2.01,9.86
-1.65,-9.65,0.02,9.79,-9.69,-0.06,-2.01,9.90
-1.66,-9.69,0.03,9.83,-9.67,-0.07,-1.98,9.87
-1.70,-9.71,0.06,9.85,-9.68,-0.05,-1.98,9.88
-1.74,-9.69,0.03,9.85,-9.68,-0.04,-2.00,9.88
-1.77,-9.67,0.04,9.83,-9.64,-0.07,-1.97,9.84
-1.73,-9.66,0.04,9.81,-9.63,-0.06,-1.96,9.83
-1.71,-9.72,0.04,9.87,-9.63,-0.04,-1.96,9.82
-1.68,-9.65,-0.02,9.80,-9.65,-0.05,-1.96,9.85
-1.68,-9.64,0.02,9.79,-9.65,-0.07,-1.95,9.84
-1.67,-9.64,0.04,9.78,-9.64,-0.09,-1.96,9.84
-1.68,-9.67,0.05,9.81,-9.63,-0.07,-1.97,9.83
-1.66,-9.67,0.02,9.81,-9.63,-0.07,-1.99,9.83
-1.70,-9.68,0.03,9.83,-9.65,-0.07,-1.97,9.85
-1.71,-9.68,0.01,9.83,-9.66,-0.07,-2.02,9.86
-1.72,-9.65,0.00,9.80,-9.65,-0.05,-1.99,9.85
-1.71,-9.66,0.01,9.81,-9.67,-0.07,-1.97,9.87
-1.72,-9.69,0.05,9.84,-9.67,-0.05,-1.96,9.87
-1.73,-9.65,-0.03,9.81,-9.68,-0.03,-2.01,9.89
-1.74,-9.69,0.07,9.85,-9.68,-0.07,-1.97,9.87
-1.69,-9.67,0.10,9.81,-9.74,-0.04,-1.96,9.94
-1.69,-9.64,0.07,9.79,-9.64,-0.10,-1.98,9.85
-1.73,-9.65,0.01,9.80,-9.62,-0.07,-1.97,9.82
-1.73,-9.63,0.01,9.79,-9.63,-0.07,-1.98,9.83
-1.75,-9.64,0.00,9.79,-9.62,-0.04,-2.01,9.83
-1.67,-9.64,0.01,9.78,-9.63,-0.03,-1.98,9.84
-1.66,-9.63,0.01,9.77,-9.64,-0.07,-1.98,9.84
-1.65,-9.66,0.01,9.80,-9.65,-0.07,-1.99,9.85
-1.69,-9.69,0.02,9.84,-9.69,-0.06,-1.96,9.89
-1.69,-9.69,0.01,9.83,-9.68,-0.03,-1.98,9.88
-1.71,-9.69,0.01,9.84,-9.68,-0.05,-2.02,9.88
-1.70,-9.70,0.00,9.85,-9.67,-0.04,-1.98,9.87
-1.72,-9.67,0.01,9.82,-9.66,-0.08,-2.01,9.86
-1.69,-9.68,0.01,9.83,-9.67,-0.08,-1.99,9.88
-1.68,-9.68,0.06,9.82,-9.66,-0.09,-1.98,9.86
-1.68,-9.67,0.04,9.81,-9.64,-0.08,-2.00,9.84
-1.69,-9.62,0.01,9.77,-9.63,-0.06,-1.97,9.83
-1.68,-9.63,0.01,9.78,-9.62,-0.06,-1.98,9.82
-1.73,-9.63,0.02,9.79,-9.62,-0.06,-2.00,9.82
-1.71,-9.64,0.03,9.79,-9.64,-0.06,-2.00,9.84
-1.70,-9.67,0.00,9.82,-9.66,-0.06,-2.02,9.86
-1.70,-9.63,0.02,9.78,-9.65,-0.04,-2.00,9.86
-1.68,-9.68,0.02,9.82,-9.68,-0.05,-1.99,9.88
-1.68,-9.69,0.02,9.83,-9.66,-0.07,-2.01,9.87
-1.68,-9.70,0.00,9.85,-9.68,-0.08,-1.99,9.88
-1.66,-9.68,0.01,9.82,-9.72,-0.05,-2.01,9.93
-1.70,-9.68,-0.00,9.83,-9.69,-0.09,-2.00,9.89
-1.66,-9.71,-0.00,9.85,-9.67,-0.11,-1.99,9.88
-1.69,-9.68,0.02,9.83,-9.65,-0.09,-2.00,9.85
-1.69,-9.67,0.01,9.82,-9.68,-0.07,-2.01,9.89
-1.71,-9.68,0.00,9.83,-9.65,-0.11,-1.99,9.85
-1.72,-9.66,0.02,9.81,-9.65,-0.11,-1.98,9.85
-1.73,-9.65,0.04,9.81,-9.64,-0.10,-2.00,9.85
-1.74,-9.65,0.07,9.81,-9.62,-0.08,-2.05,9.84
-1.72,-9.63,0.07,9.78,-9.62,-0.06,-2.03,9.84
-1.69,-9.64,0.05,9.79,-9.62,-0.06,-2.01,9.83
-1.68,-9.67,0.02,9.81,-9.63,-0.06,-2.00,9.83
-1.69,-9.66,0.03,9.81,-9.64,-0.07,-1.99,9.85
-1.69,-9.69,0.03,9.84,-9.69,-0.08,-1.97,9.89
-1.72,-9.68,0.03,9.84,-9.68,-0.08,-2.00,9.88
-1.73,-9.69,0.02,9.84,-9.69,-0.07,-2.02,9.90
-1.70,-9.69,0.03,9.84,-9.64,-0.07,-2.03,9.85
-1.73,-9.68,0.04,9.84,-9.63,-0.06,-2.06,9.85
-1.69,-9.64,0.05,9.79,-9.63,-0.04,-2.06,9.85
-1.69,-9.66,0.07,9.80,-9.64,-0.06,-2.08,9.86
-1.75,-9.65,0.04,9.80,-9.60,-0.08,-2.11,9.83
-1.72,-9.61,0.04,9.76,-9.60,-0.06,-2.10,9.83
-1.69,-9.66,0.07,9.80,-9.65,-0.06,-2.12,9.88
-1.68,-9.66,0.03,9.80,-9.64,-0.07,-2.05,9.85
-1.69,-9.67,0.03,9.82,-9.68,-0.05,-2.07,9.90
-1.73,-9.71,0.08,9.87,-9.70,-0.01,-2.10,9.93
-1.79,-9.73,0.16,9.90,-9.70,-0.06,-2.09,9.92
-1.80,-9.77,0.33,9.93,-9.67,-0.06,-1.98,9.88
-1.67,-9.58,0.09,9.73,-9.69,-0.08,-2.17,9.93
-1.65,-9.60,-0.31,9.75,-9.65,-0.06,-2.17,9.89
-1.71,-9.68,0.08,9.83,-9.60,-0.10,-1.93,9.79
-1.69,-9.67,0.00,9.82,-9.66,-0.08,-2.15,9.90
-1.76,-9.69,0.21,9.85,-9.63,-0.09,-2.16,9.87
-1.75,-9.65,0.25,9.81,-9.60,-0.06,-2.07,9.82
-1.71,-9.59,0.15,9.74,-9.60,-0.03,-2.02,9.81
-1.71,-9.59,0.03,9.74,-9.61,-0.04,-2.04,9.83
-1.74,-9.68,0.10,9.83,-9.63,-0.04,-2.08,9.85
-1.74,-9.68,0.14,9.84,-9.69,-0.03,-2.07,9.91
-1.70,-9.72,0.06,9.87,-9.70,-0.05,-2.07,9.92
-1.68,-9.73,0.06,9.88,-9.72,-0.07,-2.06,9.94
-1.70,-9.72,0.12,9.87,-9.68,-0.08,-2.03,9.89
-1.74,-9.67,0.11,9.82,-9.65,-0.08,-2.09,9.87
-1.73,-9.66,0.20,9.82,-9.64,-0.06,-2.09,9.87
-1.72,-9.63,0.14,9.79,-9.61,-0.05,-2.05,9.83
-1.73,-9.62,0.13,9.78,-9.63,-0.03,-2.07,9.85
-1.70,-9.66,0.17,9.81,-9.63,-0.07,-2.08,9.85
-1.68,-9.67,0.12,9.81,-9.63,-0.06,-2.09,9.85
-1.69,-9.64,0.09,9.79,-9.64,-0.08,-2.09,9.86
-1.69,-9.64,0.12,9.79,-9.63,-0.11,-2.12,9.86
-1.67,-9.65,0.13,9.79,-9.62,-0.09,-2.12,9.85
-1.68,-9.64,0.11,9.79,-9.59,-0.10,-2.12,9.82
-1.69,-9.69,0.17,9.84,-9.64,-0.11,-2.13,9.87
-1.69,-9.69,0.10,9.84,-9.65,-0.08,-2.12,9.88
-1.66,-9.68,0.10,9.82,-9.64,-0.09,-2.07,9.86
-1.70,-9.69,0.08,9.84,-9.62,-0.08,-2.04,9.83
-1.73,-9.73,0.18,9.88,-9.67,-0.08,-2.22,9.92
-1.69,-9.66,0.16,9.81,-9.61,-0.09,-2.05,9.82
-1.70,-9.65,0.12,9.80,-9.61,-0.10,-2.14,9.85
-1.69,-9.68,0.19,9.83,-9.57,-0.11,-2.12,9.80
-1.70,-9.59,0.05,9.74,-9.57,-0.06,-2.14,9.81
-1.73,-9.67,0.13,9.82,-9.62,-0.05,-2.18,9.87
-1.70,-9.68,0.10,9.83,-9.60,-0.08,-2.13,9.83
-1.72,-9.66,0.17,9.81,-9.64,-0.09,-2.15,9.87
-1.67,-9.62,0.09,9.77,-9.62,-0.11,-2.13,9.85
-1.69,-9.64,0.09,9.78,-9.61,-0.10,-2.10,9.83
-1.69,-9.70,0.13,9.85,-9.65,-0.11,-2.16,9.89
-1.70,-9.75,0.13,9.90,-9.58,-0.11,-2.11,9.81
-1.66,-9.66,0.11,9.80,-9.63,-0.11,-2.19,9.88
-1.70,-9.66,0.13,9.81,-9.61,-0.14,-2.17,9.85
-1.70,-9.68,0.13,9.83,-9.61,-0.16,-2.17,9.85
-1.66,-9.65,0.12,9.79,-9.60,-0.12,-2.15,9.83
-1.65,-9.62,0.13,9.77,-9.63,-0.11,-2.14,9.86
-1.66,-9.61,0.15,9.76,-9.63,-0.11,-2.10,9.85
-1.67,-9.63,0.19,9.78,-9.62,-0.10,-2.15,9.86
-1.70,-9.66,0.13,9.81,-9.63,-0.12,-2.17,9.88
-1.69,-9.65,0.08,9.79,-9.60,-0.10,-2.19,9.85
-1.72,-9.65,0.23,9.81,-9.60,-0.09,-2.16,9.84
-1.73,-9.68,0.23,9.84,-9.61,-0.13,-2.21,9.86
-1.71,-9.66,0.17,9.81,-9.63,-0.10,-2.12,9.86
-1.71,-9.61,0.15,9.76,-9.63,-0.06,-2.15,9.87
-1.69,-9.61,0.13,9.76,-9.62,-0.09,-2.15,9.86
-1.69,-9.61,0.14,9.76,-9.59,-0.08,-2.15,9.82
-1.66,-9.64,0.17,9.78,-9.61,-0.12,-2.16,9.85
-1.73,-9.66,0.33,9.82,-9.61,-0.14,-2.18,9.86
-1.66,-9.62,0.02,9.77,-9.58,-0.14,-2.19,9.82
-1.68,-9.67,0.17,9.82,-9.60,-0.12,-2.17,9.84
-1.70,-9.64,0.13,9.79,-9.58,-0.12,-2.18,9.82
-1.69,-9.65,0.09,9.80,-9.60,-0.10,-2.17,9.85
-1.70,-9.66,0.13,9.81,-9.65,-0.11,-2.20,9.90
-1.68,-9.65,0.12,9.79,-9.62,-0.11,-2.20,9.87
-1.66,-9.66,0.15,9.81,-9.62,-0.08,-2.18,9.86
-1.70,-9.69,0.16,9.84,-9.63,-0.12,-2.18,9.87
-1.72,-9.69,0.18,9.85,-9.62,-0.11,-2.15,9.86
-1.72,-9.70,0.18,9.85,-9.65,-0.12,-2.15,9.89
-1.70,-9.66,0.16,9.80,-9.62,-0.11,-2.16,9.86
-1.68,-9.62,0.12,9.77,-9.58,-0.09,-2.19,9.83
-1.72,-9.62,0.12,9.77,-9.58,-0.10,-2.15,9.82
-1.74,-9.59,0.15,9.75,-9.55,-0.07,-2.16,9.79
-1.71,-9.59,0.14,9.74,-9.58,-0.09,-2.17,9.82
-1.75,-9.68,0.16,9.84,-9.58,-0.09,-2.20,9.83
-1.78,-9.70,0.21,9.86,-9.62,-0.13,-2.28,9.89
-1.71,-9.69,0.23,9.84,-9.55,-0.12,-2.12,9.79
-1.75,-9.64,0.21,9.80,-9.61,-0.11,-2.08,9.83
-1.65,-9.64,0.11,9.78,-9.63,-0.11,-2.21,9.88
-1.64,-9.69,0.07,9.83,-9.62,-0.12,-2.12,9.85
-1.63,-9.66,0.12,9.80,-9.66,-0.13,-2.17,9.90
-1.68,-9.66,0.17,9.81,-9.58,-0.12,-2.25,9.84
-1.77,-9.70,0.20,9.86,-9.59,-0.12,-2.20,9.84
-1.79,-9.65,0.21,9.82,-9.63,-0.05,-2.18,9.87
-1.74,-9.64,0.05,9.79,-9.60,-0.07,-2.14,9.84
-1.69,-9.54,-0.13,9.69,-9.61,-0.10,-2.15,9.85
-1.74,-9.73,0.21,9.89,-9.63,-0.08,-2.15,9.87
-1.69,-9.67,0.13,9.82,-9.64,-0.07,-2.13,9.87
-1.65,-9.68,0.11,9.82,-9.68,-0.12,-2.14,9.92
-1.67,-9.69,0.13,9.83,-9.62,-0.15,-2.13,9.86
-1.71,-9.67,0.12,9.82,-9.62,-0.11,-2.14,9.85
-1.74,-9.68,0.16,9.84,-9.65,-0.08,-2.15,9.89
-1.72,-9.60,0.08,9.75,-9.60,-0.11,-2.13,9.83
-1.72,-9.58,0.11,9.74,-9.55,-0.09,-2.11,9.78
-1.72,-9.65,0.28,9.81,-9.59,-0.09,-2.14,9.83
-1.70,-9.64,0.07,9.79,-9.61,-0.09,-2.09,9.84
-1.68,-9.65,0.08,9.79,-9.62,-0.07,-2.11,9.85
-1.69,-9.69,0.09,9.83,-9.62,-0.09,-2.13,9.85
-1.69,-9.70,0.10,9.85,-9.63,-0.08,-2.11,9.86
-1.74,-9.69,0.14,9.84,-9.63,-0.11,-2.20,9.88
-1.73,-9.67,0.20,9.83,-9.65,-0.09,-2.17,9.89
-1.73,-9.70,0.22,9.86,-9.69,-0.10,-2.10,9.92
-1.68,-9.71,0.05,9.86,-9.65,-0.12,-2.07,9.87
-1.71,-9.74,0.10,9.89,-9.68,-0.09,-2.24,9.93
-1.73,-9.72,0.17,9.87,-9.60,-0.12,-2.15,9.84
-1.68,-9.67,0.16,9.81,-9.68,-0.11,-2.08,9.90
-1.69,-9.63,0.12,9.78,-9.60,-0.15,-2.08,9.83
-1.72,-9.67,0.16,9.82,-9.63,-0.10,-2.16,9.87
-1.70,-9.65,0.22,9.80,-9.59,-0.09,-2.13,9.82
-1.73,-9.64,0.12,9.79,-9.61,-0.11,-2.14,9.85
-1.72,-9.66,0.07,9.81,-9.62,-0.12,-2.07,9.84
-1.70,-9.66,0.10,9.81,-9.61,-0.09,-2.09,9.84
-1.67,-9.68,0.11,9.82,-9.64,-0.12,-2.14,9.87
-1.68,-9.66,0.10,9.81,-9.64,-0.12,-2.12,9.87
-1.68,-9.66,0.09,9.80,-9.62,-0.09,-2.13,9.85
-1.66,-9.66,0.11,9.81,-9.62,-0.11,-2.15,9.86
-1.67,-9.66,0.15,9.81,-9.62,-0.09,-2.15,9.86
-1.70,-9.64,0.12,9.79,-9.62,-0.11,-2.11,9.85
-1.69,-9.68,0.12,9.83,-9.60,-0.13,-2.16,9.84
-1.69,-9.67,0.10,9.82,-9.63,-0.09,-2.13,9.87
-1.68,-9.67,0.12,9.81,-9.60,-0.11,-2.11,9.83
-1.72,-9.65,0.13,9.80,-9.62,-0.09,-2.12,9.86
-1.71,-9.68,0.16,9.83,-9.63,-0.11,-2.12,9.86
-1.71,-9.67,0.08,9.82,-9.65,-0.12,-2.11,9.88
-1.71,-9.68,0.13,9.83,-9.64,-0.10,-2.13,9.87
-1.72,-9.66,0.11,9.82,-9.63,-0.12,-2.12,9.86
-1.70,-9.66,0.12,9.81,-9.64,-0.12,-2.12,9.87
-1.71,-9.67,0.14,9.82,-9.63,-0.12,-2.10,9.86
-1.70,-9.66,0.12,9.81,-9.63,-0.13,-2.15,9.87
-1.70,-9.65,0.10,9.80,-9.62,-0.11,-2.12,9.85
-1.69,-9.67,0.12,9.82,-9.63,-0.11,-2.11,9.86
-1.68,-9.65,0.10,9.80,-9.62,-0.13,-2.11,9.85
-1.70,-9.68,0.13,9.83,-9.62,-0.11,-2.11,9.85
-1.71,-9.65,0.12,9.80,-9.61,-0.12,-2.14,9.85
-1.71,-9.68,0.11,9.83,-9.63,-0.13,-2.12,9.86
-1.70,-9.65,0.11,9.80,-9.65,-0.12,-2.12,9.88
-1.69,-9.66,0.07,9.80,-9.64,-0.11,-2.09,9.87
-1.70,-9.69,0.09,9.84,-9.65,-0.12,-2.09,9.87
-1.71,-9.67,0.12,9.82,-9.67,-0.10,-2.11,9.90
-1.73,-9.68,0.14,9.84,-9.66,-0.09,-2.11,9.88
-1.73,-9.68,0.14,9.83,-9.64,-0.09,-2.11,9.87
-1.70,-9.65,0.17,9.80,-9.61,-0.13,-2.13,9.84
-1.73,-9.67,0.15,9.83,-9.61,-0.11,-2.13,9.84
-1.73,-9.65,0.13,9.80,-9.63,-0.14,-2.11,9.86
-1.68,-9.64,0.09,9.78,-9.61,-0.11,-2.11,9.84
-1.66,-9.65,0.08,9.79,-9.60,-0.10,-2.11,9.83
-1.74,-9.67,0.09,9.83,-9.67,-0.11,-2.15,9.90
-1.78,-9.72,0.29,9.88,-9.68,-0.08,-2.22,9.93
-1.74,-9.64,0.28,9.80,-9.59,-0.11,-2.07,9.81
-1.66,-9.54,0.01,9.68,-9.60,-0.14,-2.22,9.85
-1.64,-9.70,0.06,9.84,-9.59,-0.14,-2.08,9.82
-1.63,-9.64,-0.02,9.77,-9.59,-0.15,-2.00,9.79
-1.69,-9.69,0.15,9.83,-9.67,-0.14,-2.19,9.91
-1.76,-9.75,0.23,9.91,-9.60,-0.13,-2.20,9.85
-1.72,-9.62,0.26,9.78,-9.59,-0.10,-2.12,9.82
-1.69,-9.59,0.12,9.74,-9.58,-0.11,-2.07,9.80
-1.70,-9.60,0.04,9.75,-9.60,-0.11,-2.13,9.84
-1.72,-9.65,0.04,9.80,-9.63,-0.10,-2.17,9.87
-1.70,-9.64,0.10,9.79,-9.70,-0.12,-2.12,9.93
-1.64,-9.67,0.04,9.81,-9.69,-0.13,-2.11,9.92
-1.64,-9.69,-0.04,9.83,-9.65,-0.14,-2.11,9.88
-1.70,-9.74,0.15,9.89,-9.66,-0.15,-2.09,9.89
-1.70,-9.69,0.17,9.84,-9.67,-0.12,-2.10,9.90
-1.71,-9.70,0.18,9.85,-9.64,-0.12,-2.09,9.86
-1.76,-9.67,0.15,9.83,-9.63,-0.09,-2.03,9.84
-1.71,-9.67,0.12,9.82,-9.61,-0.12,-2.07,9.84
-1.71,-9.66,0.11,9.81,-9.65,-0.12,-2.08,9.87
-1.66,-9.65,0.12,9.79,-9.62,-0.12,-2.06,9.84
-1.68,-9.65,0.13,9.79,-9.60,-0.13,-2.06,9.82
-1.69,-9.63,0.16,9.78,-9.60,-0.14,-2.03,9.82
-1.64,-9.63,0.12,9.77,-9.62,-0.13,-2.10,9.85
-1.63,-9.63,0.10,9.77,-9.57,-0.11,-2.08,9.79
-1.69,-9.62,0.05,9.77,-9.64,-0.12,-2.11,9.87
-1.73,-9.67,0.09,9.83,-9.65,-0.11,-2.11,9.88
-1.67,-9.61,0.12,9.75,-9.60,-0.11,-2.12,9.83
-1.73,-9.67,0.05,9.82,-9.62,-0.12,-2.09,9.85
-1.72,-9.69,0.10,9.84,-9.65,-0.13,-2.21,9.90
-1.72,-9.69,0.20,9.85,-9.65,-0.16,-2.07,9.87
-1.68,-9.69,0.21,9.84,-9.66,-0.14,-2.08,9.88
-1.69,-9.67,0.16,9.82,-9.63,-0.17,-2.08,9.85
-1.71,-9.67,0.11,9.82,-9.63,-0.12,-2.12,9.86
-1.71,-9.64,0.10,9.80,-9.60,-0.10,-2.11,9.83
-1.73,-9.67,0.14,9.82,-9.62,-0.08,-2.11,9.85
-1.63,-9.64,0.13,9.78,-9.63,-0.12,-2.08,9.85
-1.67,-9.63,0.15,9.78,-9.60,-0.13,-2.07,9.82
-1.65,-9.67,0.12,9.81,-9.61,-0.11,-2.07,9.83
-1.67,-9.71,0.08,9.86,-9.63,-0.13,-2.07,9.85
-1.69,-9.66,0.10,9.81,-9.63,-0.12,-2.06,9.85
-1.69,-9.66,0.09,9.81,-9.63,-0.12,-2.12,9.86
-1.67,-9.68,0.15,9.83,-9.63,-0.14,-2.13,9.86
-1.70,-9.69,0.12,9.84,-9.64,-0.14,-2.07,9.86
-1.69,-9.69,0.11,9.84,-9.63,-0.11,-2.09,9.86
-1.69,-9.68,0.15,9.83,-9.63,-0.12,-2.12,9.86
-1.70,-9.67,0.15,9.82,-9.65,-0.12,-2.14,9.88
-1.69,-9.67,0.14,9.82,-9.62,-0.09,-2.14,9.86
-1.70,-9.66,0.14,9.81,-9.64,-0.13,-2.14,9.88
-1.68,-9.66,0.12,9.80,-9.60,-0.13,-2.14,9.83
-1.70,-9.66,0.09,9.81,-9.64,-0.10,-2.12,9.87
-1.70,-9.68,0.11,9.83,-9.63,-0.13,-2.11,9.86
-1.66,-9.68,0.13,9.82,-9.61,-0.15,-2.15,9.85
-1.71,-9.68,0.13,9.83,-9.63,-0.10,-2.12,9.86
-1.71,-9.65,0.14,9.80,-9.65,-0.11,-2.09,9.87
-1.73,-9.64,0.11,9.79,-9.66,-0.13,-2.16,9.90
-1.70,-9.66,0.12,9.81,-9.64,-0.12,-2.13,9.88
-1.72,-9.66,0.13,9.81,-9.60,-0.14,-2.00,9.81
-1.68,-9.59,0.13,9.74,-9.58,-0.13,-2.18,9.82
-1.69,-9.62,0.10,9.76,-9.59,-0.12,-2.09,9.82
-1.67,-9.63,0.10,9.78,-9.63,-0.12,-2.12,9.86
-1.69,-9.65,0.09,9.80,-9.64,-0.12,-2.10,9.86
-1.69,-9.63,-0.02,9.78,-9.63,-0.09,-2.09,9.86
-1.71,-9.70,0.11,9.85,-9.66,-0.12,-2.10,9.89
-1.68,-9.69,0.06,9.83,-9.66,-0.12,-2.09,9.88
-1.71,-9.68,0.15,9.83,-9.66,-0.11,-2.12,9.89
-1.68,-9.70,0.11,9.84,-9.67,-0.11,-2.09,9.89
-1.68,-9.67,0.14,9.82,-9.64,-0.12,-2.11,9.87
-1.71,-9.66,0.13,9.81,-9.65,-0.08,-2.10,9.87
-1.72,-9.69,0.12,9.84,-9.65,-0.13,-2.08,9.87
-1.72,-9.69,0.12,9.84,-9.68,-0.09,-2.11,9.91
-1.72,-9.70,0.10,9.86,-9.63,-0.13,-2.04,9.84
-1.66,-9.64,0.08,9.78,-9.63,-0.14,-2.11,9.86
-1.71,-9.69,0.12,9.85,-9.64,-0.10,-2.14,9.87
-1.76,-9.72,0.31,9.88,-9.66,-0.10,-2.23,9.92
-1.74,-9.62,0.26,9.78,-9.58,-0.12,-2.05,9.80
-1.67,-9.50,0.10,9.65,-9.56,-0.11,-2.16,9.80
-1.63,-9.59,-0.02,9.72,-9.57,-0.14,-2.18,9.82
-1.65,-9.68,0.05,9.82,-9.58,-0.12,-2.01,9.79
-1.62,-9.67,0.08,9.81,-9.66,-0.14,-2.12,9.89
-1.73,-9.71,0.21,9.86,-9.63,-0.12,-2.19,9.88
-1.74,-9.68,0.30,9.84,-9.60,-0.11,-2.11,9.83
-1.74,-9.59,0.21,9.75,-9.59,-0.11,-2.07,9.81
-1.73,-9.60,0.11,9.76,-9.62,-0.09,-2.14,9.85
-1.70,-9.66,0.01,9.81,-9.59,-0.08,-2.10,9.82
-1.72,-9.62,-0.22,9.78,-9.64,-0.09,-2.15,9.88
-1.74,-9.70,0.12,9.85,-9.69,-0.11,-2.09,9.91
-1.68,-9.71,0.09,9.85,-9.71,-0.11,-2.06,9.93
-1.67,-9.69,0.12,9.83,-9.68,-0.10,-2.08,9.91
-1.70,-9.71,0.13,9.86,-9.62,-0.12,-2.09,9.85
-1.75,-9.70,0.15,9.86,-9.65,-0.08,-2.10,9.87
-1.74,-9.67,0.14,9.82,-9.61,-0.09,-2.04,9.82
-1.69,-9.64,0.10,9.79,-9.59,-0.12,-2.07,9.81
-1.66,-9.64,0.10,9.78,-9.62,-0.15,-2.06,9.84
-1.66,-9.65,0.07,9.79,-9.59,-0.10,-2.03,9.81
-1.65,-9.64,0.09,9.78,-9.65,-0.14,-2.08,9.87
-1.65,-9.66,0.12,9.80,-9.61,-0.13,-2.03,9.82
-1.67,-9.67,0.10,9.81,-9.65,-0.14,-2.05,9.86
-1.67,-9.69,0.26,9.84,-9.65,-0.11,-2.06,9.87
-1.69,-9.67,0.10,9.82,-9.63,-0.12,-2.10,9.86
-1.70,-9.67,0.08,9.82,-9.64,-0.12,-2.07,9.86
-1.71,-9.67,0.14,9.82,-9.68,-0.09,-2.07,9.90
-1.72,-9.68,0.13,9.84,-9.65,-0.12,-2.07,9.87
-1.73,-9.71,0.10,9.87,-9.68,-0.11,-2.14,9.91
-1.73,-9.72,0.18,9.87,-9.65,-0.08,-2.07,9.87
-1.67,-9.61,0.18,9.76,-9.63,-0.11,-2.09,9.85
-1.67,-9.63,0.05,9.77,-9.60,-0.13,-2.07,9.82
-1.74,-9.62,0.01,9.78,-9.61,-0.11,-2.09,9.83
-1.75,-9.63,0.14,9.79,-9.61,-0.09,-2.07,9.83
-1.72,-9.74,-0.02,9.89,-9.66,-0.06,-2.09,9.88
-1.70,-9.68,0.13,9.83,-9.66,-0.09,-2.04,9.87
-1.68,-9.66,-0.02,9.80,-9.64,-0.12,-2.03,9.85
-1.71,-9.71,0.11,9.86,-9.66,-0.11,-2.05,9.87
-1.66,-9.64,0.08,9.78,-9.68,-0.10,-2.01,9.89
-1.68,-9.68,0.16,9.83,-9.68,-0.09,-2.05,9.90
-1.70,-9.72,0.05,9.87,-9.72,-0.11,-2.08,9.94
-1.69,-9.66,0.06,9.80,-9.66,-0.06,-2.04,9.87
-1.71,-9.69,0.14,9.84,-9.64,-0.06,-2.00,9.85
-1.69,-9.69,0.11,9.84,-9.67,-0.10,-2.06,9.89
-1.69,-9.61,0.12,9.76,-9.64,-0.08,-2.06,9.85
-1.69,-9.68,0.18,9.82,-9.66,-0.06,-2.05,9.88
-1.70,-9.68,0.12,9.83,-9.66,-0.06,-2.00,9.87
-1.72,-9.67,0.12,9.82,-9.62,-0.08,-2.02,9.83
-1.72,-9.66,0.08,9.81,-9.66,-0.08,-2.05,9.87
-1.72,-9.65,0.09,9.80,-9.63,-0.08,-2.05,9.85
-1.72,-9.70,0.14,9.85,-9.67,-0.10,-2.05,9.88
-1.72,-9.67,0.06,9.83,-9.64,-0.10,-2.07,9.86
-1.71,-9.62,0.04,9.77,-9.64,-0.07,-2.05,9.85
-1.71,-9.64,-0.02,9.79,-9.62,-0.08,-2.06,9.83
-1.71,-9.63,0.06,9.78,-9.65,-0.06,-2.05,9.86
-1.71,-9.68,0.08,9.83,-9.66,-0.05,-2.07,9.88
-1.72,-9.67,0.08,9.82,-9.63,-0.06,-2.02,9.83
-1.71,-9.68,0.08,9.83,-9.67,-0.07,-2.03,9.88
-1.72,-9.68,0.03,9.83,-9.64,-0.04,-2.03,9.85
-1.71,-9.61,-0.07,9.76,-9.68,-0.09,-2.04,9.89
-1.73,-9.66,0.08,9.81,-9.66,-0.09,-2.04,9.88
-1.72,-9.67,0.04,9.83,-9.68,-0.06,-2.03,9.89
-1.73,-9.65,0.09,9.80,-9.68,-0.07,-2.01,9.89
-1.73,-9.69,0.06,9.84,-9.68,-0.07,-2.02,9.89
-1.75,-9.67,0.07,9.83,-9.65,-0.03,-2.05,9.87
-1.72,-9.65,0.07,9.80,-9.67,-0.05,-2.03,9.88
-1.73,-9.69,0.06,9.84,-9.64,-0.08,-2.04,9.85
-1.72,-9.64,0.07,9.79,-9.63,-0.08,-2.05,9.84
-1.72,-9.62,0.07,9.77,-9.63,-0.04,-2.04,9.84
-1.72,-9.63,0.07,9.78,-9.62,-0.08,-2.05,9.83
-1.71,-9.64,0.09,9.80,-9.60,-0.06,-2.06,9.82
-1.70,-9.66,0.07,9.81,-9.63,-0.10,-2.05,9.84
-1.73,-9.66,0.05,9.82,-9.65,-0.08,-2.03,9.86
-1.69,-9.66,0.06,9.81,-9.64,-0.08,-2.02,9.85
-1.73,-9.66,0.06,9.81,-9.68,-0.07,-2.04,9.89
-1.69,-9.65,0.04,9.80,-9.64,-0.08,-2.05,9.86
-1.65,-9.65,0.02,9.79,-9.68,-0.07,-2.03,9.89
-1.70,-9.70,0.07,9.85,-9.66,-0.06,-2.03,9.87
-1.79,-9.71,0.14,9.88,-9.68,0.00,-2.11,9.91
-1.75,-9.65,0.16,9.81,-9.63,-0.05,-1.99,9.83
-1.68,-9.55,0.03,9.70,-9.62,-0.07,-2.17,9.86
-1.67,-9.65,-0.10,9.79,-9.66,-0.09,-2.06,9.88
-1.70,-9.66,0.09,9.81,-9.61,-0.04,-1.87,9.79
-1.63,-9.50,-0.09,9.64,-9.61,-0.04,-2.04,9.82
-1.78,-9.69,0.12,9.86,-9.66,-0.06,-2.13,9.89
-1.80,-9.68,0.17,9.85,-9.65,-0.05,-2.04,9.86
-1.73,-9.58,0.17,9.74,-9.63,-0.05,-1.99,9.83
-1.74,-9.60,0.00,9.76,-9.59,-0.07,-2.01,9.80
-1.73,-9.62,0.01,9.78,-9.60,-0.06,-2.06,9.82
-1.71,-9.64,0.03,9.79,-9.65,-0.04,-2.01,9.86
-1.70,-9.67,0.05,9.82,-9.69,-0.05,-2.01,9.89
-1.69,-9.68,0.03,9.82,-9.69,-0.07,-2.05,9.91
-1.67,-9.67,-0.02,9.81,-9.66,-0.06,-2.00,9.86
-1.74,-9.74,0.10,9.90,-9.66,-0.08,-1.99,9.87
-1.77,-9.69,0.05,9.85,-9.65,-0.05,-2.02,9.86
-1.75,-9.74,0.11,9.89,-9.64,-0.05,-2.00,9.84
-1.71,-9.65,0.01,9.80,-9.64,-0.04,-2.01,9.84
-1.74,-9.64,0.03,9.80,-9.61,-0.08,-1.99,9.82
-1.70,-9.63,0.06,9.78,-9.63,-0.07,-2.01,9.84
-1.71,-9.64,0.07,9.79,-9.65,-0.09,-1.99,9.85
-1.71,-9.65,0.07,9.80,-9.65,-0.08,-2.00,9.85
-1.69,-9.63,0.08,9.78,-9.63,-0.08,-2.03,9.84
-1.68,-9.64,0.06,9.79,-9.61,-0.05,-2.02,9.82
-1.71,-9.63,0.01,9.78,-9.60,-0.07,-2.00,9.81
-1.72,-9.59,-0.00,9.74,-9.64,-0.08,-1.97,9.84
-1.69,-9.66,0.00,9.80,-9.64,-0.07,-2.00,9.85
-1.74,-9.66,-0.04,9.82,-9.67,-0.04,-1.99,9.88
-1.74,-9.73,0.10,9.88,-9.69,-0.04,-2.05,9.90
-1.71,-9.72,0.05,9.87,-9.72,-0.03,-1.92,9.91
-1.70,-9.70,0.11,9.85,-9.70,-0.06,-2.03,9.91
-1.72,-9.73,0.03,9.88,-9.67,-0.09,-1.98,9.87
-1.71,-9.64,0.05,9.79,-9.66,-0.07,-2.01,9.87
-1.70,-9.69,-0.03,9.84,-9.69,-0.06,-1.96,9.88
-1.71,-9.67,0.03,9.82,-9.67,-0.07,-2.04,9.88
-1.67,-9.64,0.03,9.78,-9.64,-0.04,-2.01,9.85
-1.70,-9.61,0.02,9.76,-9.65,-0.08,-1.98,9.85
-1.71,-9.65,0.01,9.80,-9.62,-0.09,-2.00,9.83
-1.70,-9.64,0.01,9.79,-9.63,-0.09,-1.99,9.84
-1.73,-9.65,0.02,9.81,-9.65,-0.03,-2.03,9.86
-1.69,-9.67,0.02,9.82,-9.61,-0.08,-2.01,9.82
-1.70,-9.65,0.03,9.80,-9.67,-0.09,-2.00,9.88
-1.69,-9.68,0.05,9.82,-9.66,-0.05,-1.98,9.86
-1.67,-9.67,0.07,9.81,-9.66,-0.06,-2.00,9.86
-1.70,-9.67,0.05,9.82,-9.65,-0.07,-2.01,9.85
-1.66,-9.69,0.04,9.83,-9.65,-0.09,-1.98,9.85
-1.70,-9.69,0.05,9.84,-9.68,-0.06,-2.00,9.88
-1.70,-9.68,0.05,9.83,-9.68,-0.08,-1.98,9.88
-1.75,-9.70,0.04,9.86,-9.67,-0.06,-1.97,9.87
-1.71,-9.70,0.03,9.85,-9.68,-0.08,-2.03,9.89
-1.71,-9.69,0.06,9.84,-9.67,-0.05,-2.01,9.87
-1.71,-9.64,0.08,9.79,-9.67,-0.06,-2.00,9.88
-1.72,-9.63,0.08,9.79,-9.65,-0.05,-2.01,9.86
-1.73,-9.61,0.06,9.77,-9.64,-0.03,-2.00,9.84
-1.71,-9.64,0.05,9.79,-9.61,-0.07,-2.01,9.81
-1.72,-9.64,0.07,9.79,-9.63,-0.07,-2.03,9.84
-1.71,-9.61,0.03,9.76,-9.62,-0.04,-2.01,9.83
-1.70,-9.64,0.06,9.79,-9.63,-0.07,-2.01,9.84
-1.71,-9.66,0.05,9.81,-9.66,-0.05,-1.99,9.86
-1.69,-9.67,0.04,9.82,-9.67,-0.06,-1.99,9.87
-1.72,-9.68,0.05,9.83,-9.68,-0.07,-1.98,9.88
-1.71,-9.69,0.07,9.84,-9.66,-0.04,-2.01,9.87
-1.69,-9.68,0.04,9.83,-9.70,-0.06,-1.99,9.90
-1.74,-9.67,0.03,9.83,-9.66,-0.05,-1.99,9.87
-1.73,-9.67,0.04,9.82,-9.67,-0.07,-2.01,9.88
-1.71,-9.65,0.02,9.80,-9.65,-0.06,-2.01,9.86
-1.74,-9.66,0.03,9.82,-9.64,-0.05,-2.02,9.85
-1.74,-9.66,0.00,9.81,-9.67,-0.04,-2.00,9.87
-1.72,-9.66,0.01,9.81,-9.66,-0.06,-2.02,9.86
-1.70,-9.66,0.00,9.81,-9.64,-0.05,-2.05,9.85
-1.73,-9.67,0.01,9.83,-9.67,-0.03,-2.03,9.88
-1.72,-9.65,0.04,9.81,-9.66,-0.06,-2.05,9.88
-1.71,-9.66,0.05,9.81,-9.65,-0.06,-2.03,9.86
-1.73,-9.63,0.05,9.78,-9.66,-0.05,-2.06,9.87
-1.70,-9.68,0.04,9.83,-9.64,-0.05,-2.03,9.85
-1.70,-9.66,0.01,9.81,-9.65,-0.04,-2.03,9.86
-1.67,-9.68,0.00,9.82,-9.63,-0.07,-2.04,9.84
-1.65,-9.66,-0.00,9.80,-9.63,-0.05,-2.03,9.84
-1.72,-9.74,0.03,9.89,-9.69,-0.05,-2.06,9.91
-1.75,-9.71,0.14,9.86,-9.67,-0.05,-2.09,9.89
-1.75,-9.73,0.16,9.88,-9.67,-0.05,-1.98,9.87
-1.70,-9.58,-0.02,9.73,-9.69,-0.04,-2.17,9.93
-1.67,-9.74,-0.03,9.88,-9.64,-0.07,-2.00,9.84
-1.71,-9.70,-0.02,9.85,-9.64,-0.06,-1.88,9.82
-1.69,-9.69,0.01,9.83,-9.68,-0.06,-2.17,9.92
-1.76,-9.69,0.14,9.85,-9.60,-0.07,-2.15,9.83
-1.75,-9.62,0.16,9.78,-9.64,-0.03,-2.07,9.85
-1.75,-9.57,0.09,9.73,-9.62,-0.05,-2.02,9.83
-1.70,-9.60,-0.01,9.75,-9.57,-0.04,-2.04,9.78
-1.71,-9.63,-0.03,9.78,-9.62,-0.03,-2.10,9.84
-1.72,-9.71,0.01,9.87,-9.68,-0.04,-2.04,9.89
-1.71,-9.69,0.05,9.84,-9.71,-0.05,-2.02,9.92
-1.70,-9.72,0.05,9.87,-9.71,-0.05,-2.04,9.92
-1.69,-9.74,0.09,9.88,-9.70,-0.07,-2.03,9.91
-1.71,-9.70,0.09,9.85,-9.68,-0.03,-2.04,9.90
-1.73,-9.73,0.00,9.89,-9.63,-0.07,-2.04,9.84
-1.74,-9.63,0.03,9.79,-9.61,-0.07,-2.05,9.83
-1.74,-9.64,0.14,9.79,-9.62,-0.05,-2.03,9.83
-1.72,-9.65,0.06,9.80,-9.64,-0.08,-2.03,9.86
-1.70,-9.64,0.12,9.79,-9.60,-0.06,-1.99,9.81
-1.69,-9.58,0.15,9.73,-9.63,-0.08,-2.07,9.85
-1.68,-9.63,0.11,9.78,-9.61,-0.08,-2.03,9.82
-1.68,-9.59,0.09,9.73,-9.57,-0.08,-2.03,9.79
-1.70,-9.59,0.09,9.74,-9.62,-0.08,-2.09,9.84
-1.74,-9.62,0.11,9.78,-9.64,-0.07,-2.06,9.86
-1.67,-9.64,0.05,9.79,-9.64,-0.06,-2.05,9.86
-1.74,-9.67,0.04,9.83,-9.63,-0.05,-2.07,9.85
-1.73,-9.71,0.15,9.86,-9.68,-0.05,-2.14,9.92
-1.76,-9.77,0.20,9.93,-9.66,-0.07,-2.01,9.86
-1.70,-9.66,0.07,9.80,-9.71,-0.05,-2.04,9.92
-1.72,-9.71,0.17,9.86,-9.68,-0.10,-2.06,9.89
-1.72,-9.71,0.17,9.86,-9.67,-0.08,-2.09,9.89
-1.70,-9.70,0.23,9.85,-9.68,-0.08,-2.05,9.90
-1.71,-9.64,0.07,9.79,-9.68,-0.06,-2.03,9.89
-1.67,-9.67,0.06,9.81,-9.66,-0.08,-2.05,9.88
-1.66,-9.65,0.07,9.79,-9.63,-0.08,-2.09,9.86
-1.68,-9.68,0.12,9.82,-9.63,-0.08,-2.10,9.86
-1.68,-9.65,0.11,9.80,-9.66,-0.09,-2.05,9.87
-1.70,-9.69,0.16,9.84,-9.65,-0.07,-2.11,9.87
-1.72,-9.67,0.17,9.82,-9.61,-0.10,-2.13,9.84
-1.70,-9.65,0.15,9.80,-9.61,-0.09,-2.11,9.84
-1.69,-9.65,0.21,9.80,-9.62,-0.08,-2.09,9.84
-1.68,-9.65,0.14,9.80,-9.63,-0.10,-2.09,9.85
-1.69,-9.65,0.10,9.79,-9.60,-0.09,-2.09,9.83
-1.71,-9.68,0.18,9.83,-9.63,-0.09,-2.07,9.85
-1.69,-9.68,0.16,9.83,-9.64,-0.11,-2.05,9.86
-1.68,-9.69,0.12,9.84,-9.65,-0.10,-2.09,9.88
-1.69,-9.68,0.19,9.83,-9.64,-0.10,-2.08,9.86
-1.72,-9.70,0.14,9.85,-9.65,-0.10,-2.11,9.88
-1.72,-9.70,0.20,9.85,-9.63,-0.10,-2.08,9.86
-1.71,-9.66,0.12,9.81,-9.63,-0.08,-2.10,9.86
-1.74,-9.68,0.17,9.83,-9.63,-0.09,-2.06,9.85
-1.72,-9.66,0.13,9.81,-9.64,-0.09,-2.10,9.87
-1.72,-9.66,0.14,9.81,-9.63,-0.10,-2.12,9.86
-1.69,-9.67,0.15,9.81,-9.62,-0.09,-2.11,9.85
-1.71,-9.70,0.25,9.85,-9.63,-0.11,-2.09,9.85
-1.72,-9.67,0.20,9.83,-9.63,-0.11,-2.12,9.86
-1.72,-9.63,0.12,9.78,-9.62,-0.09,-2.12,9.85
-1.70,-9.68,0.16,9.82,-9.65,-0.07,-2.11,9.88
-1.70,-9.69,0.12,9.84,-9.64,-0.09,-2.13,9.87
-1.72,-9.67,0.11,9.82,-9.62,-0.08,-2.11,9.85
-1.70,-9.68,0.13,9.83,-9.64,-0.10,-2.11,9.87
-1.69,-9.65,0.10,9.80,-9.61,-0.07,-2.14,9.84
-1.69,-9.67,0.16,9.81,-9.61,-0.11,-2.14,9.85
-1.70,-9.66,0.11,9.81,-9.63,-0.08,-2.15,9.86
-1.71,-9.65,0.18,9.80,-9.61,-0.07,-2.14,9.85
-1.70,-9.63,0.12,9.78,-9.62,-0.09,-2.14,9.85
-1.73,-9.62,0.17,9.78,-9.63,-0.06,-2.16,9.87
-1.72,-9.64,0.13,9.79,-9.61,-0.06,-2.15,9.84
-1.75,-9.63,0.14,9.79,-9.59,-0.06,-2.14,9.83
-1.71,-9.64,0.09,9.80,-9.60,-0.10,-2.15,9.84
-1.72,-9.65,0.13,9.80,-9.62,-0.09,-2.14,9.85
-1.69,-9.64,0.11,9.79,-9.58,-0.11,-2.11,9.81
-1.68,-9.66,0.11,9.81,-9.61,-0.08,-2.14,9.85
-1.76,-9.71,0.17,9.87,-9.63,-0.08,-2.22,9.88
-1.73,-9.77,0.29,9.92,-9.69,-0.08,-2.16,9.92
-1.70,-9.66,0.20,9.82,-9.60,-0.11,-2.07,9.82
-1.70,-9.64,0.08,9.79,-9.66,-0.08,-2.19,9.90
-1.69,-9.67,0.05,9.82,-9.65,-0.07,-2.20,9.89
-1.67,-9.69,0.12,9.84,-9.64,-0.12,-2.11,9.87
-1.67,-9.64,0.15,9.79,-9.61,-0.10,-2.22,9.86
-1.71,-9.63,0.19,9.78,-9.54,-0.15,-2.20,9.79
-1.77,-9.58,0.40,9.75,-9.54,-0.09,-2.16,9.78
-1.77,-9.51,0.21,9.68,-9.56,-0.05,-2.10,9.79
-1.76,-9.57,0.10,9.73,-9.56,-0.05,-2.09,9.79
-1.75,-9.65,0.07,9.81,-9.61,-0.08,-2.13,9.85
-1.73,-9.68,0.14,9.83,-9.66,-0.06,-2.11,9.89
-1.68,-9.66,0.12,9.81,-9.67,-0.10,-2.13,9.90
-1.67,-9.69,0.13,9.83,-9.66,-0.09,-2.11,9.89
-1.67,-9.70,0.13,9.85,-9.67,-0.11,-2.10,9.89
-1.71,-9.71,0.16,9.86,-9.65,-0.11,-2.14,9.89
-1.76,-9.69,0.17,9.85,-9.63,-0.11,-2.14,9.87
-1.73,-9.69,0.16,9.85,-9.62,-0.08,-2.11,9.85
-1.71,-9.67,0.14,9.82,-9.62,-0.09,-2.09,9.84
-1.67,-9.65,0.05,9.80,-9.63,-0.08,-2.09,9.86
-1.68,-9.66,0.08,9.81,-9.62,-0.10,-2.10,9.85
-1.67,-9.67,0.08,9.82,-9.63,-0.11,-2.09,9.86
-1.69,-9.65,0.13,9.79,-9.58,-0.12,-2.12,9.81
-1.73,-9.63,0.13,9.79,-9.60,-0.13,-2.15,9.84
-1.73,-9.66,0.17,9.82,-9.62,-0.10,-2.14,9.85
-1.74,-9.62,0.12,9.78,-9.58,-0.10,-2.10,9.81
-1.66,-9.65,0.03,9.79,-9.61,-0.07,-2.04,9.82
-1.72,-9.65,0.08,9.80,-9.66,-0.05,-2.17,9.90
-1.76,-9.71,0.27,9.87,-9.63,-0.11,-2.15,9.87
-1.70,-9.66,0.13,9.81,-9.67,-0.08,-2.05,9.88
-1.69,-9.58,-0.01,9.73,-9.63,-0.13,-2.07,9.85
-1.72,-9.70,0.12,9.86,-9.65,-0.09,-2.06,9.87
-1.73,-9.66,0.15,9.81,-9.63,-0.07,-2.14,9.87
-1.70,-9.69,0.21,9.84,-9.64,-0.09,-2.07,9.86
-1.70,-9.62,0.07,9.77,-9.62,-0.07,-2.06,9.84
-1.73,-9.70,0.08,9.85,-9.66,-0.11,-2.08,9.88
-1.68,-9.66,-0.02,9.81,-9.65,-0.08,-2.10,9.88
-1.69,-9.69,0.09,9.83,-9.62,-0.09,-2.12,9.85
-1.68,-9.68,0.14,9.83,-9.63,-0.10,-2.10,9.85
-1.70,-9.67,0.13,9.82,-9.60,-0.11,-2.10,9.83
-1.71,-9.67,0.11,9.82,-9.63,-0.05,-2.09,9.86
-1.72,-9.64,0.12,9.79,-9.61,-0.09,-2.10,9.83
-1.70,-9.62,0.19,9.77,-9.63,-0.07,-2.09,9.85
-1.69,-9.69,0.43,9.84,-9.61,-0.09,-2.08,9.83
-1.71,-9.65,0.05,9.80,-9.64,-0.05,-2.04,9.85
-1.67,-9.67,0.09,9.81,-9.64,-0.08,-2.08,9.86
-1.74,-9.68,0.11,9.83,-9.67,-0.08,-2.09,9.89
-1.70,-9.63,-0.01,9.78,-9.62,-0.08,-2.07,9.84
-1.72,-9.70,0.12,9.85,-9.65,-0.10,-2.09,9.87
-1.74,-9.69,0.14,9.85,-9.65,-0.09,-2.07,9.87
-1.73,-9.68,0.12,9.83,-9.65,-0.09,-2.05,9.87
-1.72,-9.67,0.13,9.82,-9.66,-0.08,-2.07,9.88
-1.73,-9.68,0.18,9.84,-9.64,-0.09,-2.09,9.87
-1.69,-9.65,0.03,9.79,-9.65,-0.09,-2.04,9.86
-1.69,-9.69,0.11,9.83,-9.65,-0.07,-2.10,9.87
-1.70,-9.67,0.10,9.82,-9.65,-0.08,-2.08,9.87
-1.71,-9.68,0.10,9.83,-9.66,-0.08,-2.09,9.88
-1.69,-9.65,0.11,9.80,-9.62,-0.07,-2.07,9.84
-1.69,-9.64,0.04,9.79,-9.62,-0.06,-2.07,9.84
-1.70,-9.70,0.05,9.84,-9.60,-0.08,-2.07,9.82
-1.68,-9.61,0.10,9.76,-9.64,-0.10,-2.10,9.87
-1.67,-9.64,0.10,9.78,-9.67,-0.09,-2.09,9.89
-1.70,-9.66,0.09,9.81,-9.65,-0.08,-2.04,9.86
-1.74,-9.64,0.11,9.80,-9.65,-0.10,-2.04,9.86
-1.73,-9.66,0.08,9.82,-9.64,-0.08,-2.08,9.87
-1.72,-9.68,0.09,9.83,-9.66,-0.08,-2.07,9.88
-1.74,-9.68,0.10,9.83,-9.61,-0.09,-2.11,9.84
-1.71,-9.60,-0.04,9.75,-9.63,-0.06,-2.04,9.84
-1.69,-9.67,0.17,9.82,-9.66,-0.08,-2.04,9.87
-1.72,-9.67,0.01,9.83,-9.64,-0.07,-2.10,9.87
-1.76,-9.71,0.13,9.87,-9.65,-0.07,-2.13,9.88
-1.72,-9.69,0.21,9.84,-9.62,-0.08,-2.02,9.83
-1.74,-9.59,0.12,9.75,-9.60,-0.08,-2.05,9.81
-1.64,-9.56,0.02,9.70,-9.63,-0.09,-2.14,9.87
-1.68,-9.73,-0.02,9.87,-9.61,-0.11,-1.94,9.81
-1.66,-9.62,-0.00,9.76,-9.66,-0.11,-2.04,9.87
-1.76,-9.76,0.09,9.92,-9.65,-0.12,-2.15,9.89
-1.78,-9.72,0.19,9.88,-9.61,-0.09,-2.09,9.83
-1.73,-9.61,0.14,9.77,-9.62,-0.06,-2.04,9.83
-1.70,-9.58,0.04,9.73,-9.62,-0.07,-2.02,9.83
-1.72,-9.66,0.03,9.81,-9.64,-0.05,-2.12,9.87
-1.73,-9.67,0.03,9.83,-9.64,-0.05,-2.03,9.85
-1.71,-9.63,0.03,9.78,-9.66,-0.06,-2.07,9.88
-1.67,-9.60,0.01,9.75,-9.67,-0.06,-2.05,9.89
-1.69,-9.71,0.17,9.86,-9.67,-0.08,-2.02,9.88
-1.73,-9.73,0.11,9.88,-9.66,-0.07,-2.02,9.86
-1.75,-9.71,0.09,9.87,-9.70,-0.06,-2.04,9.91
-1.72,-9.67,0.07,9.82,-9.65,-0.05,-1.98,9.85
-1.75,-9.65,0.07,9.81,-9.63,-0.05,-2.00,9.84
-1.74,-9.67,0.08,9.82,-9.66,-0.08,-2.01,9.87
-1.74,-9.64,0.04,9.80,-9.64,-0.08,-1.98,9.85
-1.71,-9.65,0.04,9.80,-9.65,-0.04,-2.02,9.86
-1.67,-9.67,0.07,9.81,-9.64,-0.09,-2.02,9.85
-1.71,-9.66,0.05,9.82,-9.66,-0.09,-2.00,9.87
-1.72,-9.67,0.03,9.82,-9.64,-0.08,-2.05,9.86
-1.73,-9.67,0.06,9.83,-9.61,-0.06,-2.05,9.83
-1.73,-9.63,-0.02,9.78,-9.65,-0.06,-2.01,9.86
-1.71,-9.68,0.02,9.83,-9.68,-0.04,-1.98,9.88
-1.72,-9.65,0.01,9.80,-9.68,-0.02,-2.01,9.88
-1.75,-9.68,0.03,9.84,-9.64,-0.04,-2.07,9.86
-1.76,-9.70,0.05,9.86,-9.68,-0.05,-2.00,9.88
-1.72,-9.66,0.07,9.81,-9.71,-0.04,-2.01,9.91
-1.76,-9.70,0.08,9.86,-9.66,-0.10,-2.01,9.87
-1.73,-9.67,0.06,9.82,-9.61,-0.08,-2.07,9.83
-1.74,-9.63,0.00,9.79,-9.61,-0.06,-2.04,9.82
-1.73,-9.65,-0.00,9.80,-9.66,-0.04,-2.03,9.87
-1.70,-9.64,0.03,9.79,-9.64,-0.06,-2.05,9.85
-1.68,-9.64,0.01,9.78,-9.63,-0.05,-2.00,9.83
-1.70,-9.69,0.00,9.84,-9.65,-0.10,-2.01,9.86
-1.71,-9.68,0.02,9.83,-9.64,-0.07,-2.04,9.86
-1.74,-9.68,0.03,9.84,-9.64,-0.03,-2.07,9.86
-1.72,-9.66,0.01,9.82,-9.65,-0.03,-2.07,9.87
-1.69,-9.66,0.04,9.81,-9.64,-0.05,-2.04,9.86
-1.72,-9.67,0.05,9.82,-9.67,-0.04,-2.01,9.87
-1.71,-9.68,0.01,9.83,-9.65,-0.07,-2.05,9.87
-1.69,-9.66,0.04,9.80,-9.63,-0.05,-2.02,9.84
-1.72,-9.64,0.05,9.79,-9.66,-0.06,-2.00,9.87
-1.69,-9.68,0.05,9.83,-9.64,-0.07,-2.02,9.85
-1.72,-9.64,0.02,9.80,-9.65,-0.06,-2.04,9.87
-1.70,-9.67,0.04,9.82,-9.68,-0.08,-2.01,9.89
-1.70,-9.64,0.03,9.79,-9.64,-0.06,-2.01,9.84
-1.71,-9.66,0.01,9.81,-9.64,-0.07,-2.02,9.85
-1.74,-9.63,0.03,9.79,-9.61,-0.05,-2.02,9.82
-1.73,-9.69,0.01,9.84,-9.63,-0.06,-2.04,9.84
-1.71,-9.68,0.03,9.83,-9.66,-0.06,-2.01,9.86
-1.68,-9.67,0.04,9.81,-9.66,-0.05,-2.04,9.88
-1.71,-9.66,0.03,9.81,-9.65,-0.10,-2.04,9.86
-1.70,-9.67,0.01,9.81,-9.66,-0.08,-2.01,9.87
-1.69,-9.66,0.05,9.81,-9.66,-0.05,-2.00,9.87
-1.70,-9.67,0.05,9.82,-9.64,-0.06,-2.04,9.85
-1.69,-9.70,0.03,9.85,-9.67,-0.06,-2.01,9.87
-1.69,-9.67,0.04,9.82,-9.68,-0.06,-2.02,9.89
-1.72,-9.67,0.04,9.82,-9.66,-0.05,-2.02,9.87
-1.70,-9.64,0.04,9.79,-9.66,-0.06,-2.01,9.87
-1.70,-9.67,0.04,9.82,-9.64,-0.06,-2.00,9.84
-1.75,-9.66,0.07,9.82,-9.65,-0.06,-2.01,9.86
-1.75,-9.65,0.05,9.80,-9.68,-0.05,-2.01,9.89
-1.75,-9.67,0.05,9.83,-9.63,-0.04,-2.03,9.84
-1.76,-9.66,0.00,9.82,-9.64,-0.07,-2.03,9.85
-1.73,-9.65,0.03,9.81,-9.68,-0.06,-2.03,9.89
-1.67,-9.64,-0.00,9.79,-9.64,-0.05,-1.99,9.84
-1.73,-9.68,0.01,9.83,-9.64,-0.04,-2.02,9.85
-1.77,-9.71,0.15,9.87,-9.68,-0.04,-2.12,9.91
-1.76,-9.66,0.15,9.81,-9.65,-0.08,-1.94,9.84
-1.70,-9.57,0.01,9.72,-9.67,-0.06,-2.14,9.90
-1.64,-9.71,-0.10,9.84,-9.66,-0.07,-2.02,9.87
-1.68,-9.71,-0.01,9.86,-9.61,-0.09,-1.91,9.80
-1.65,-9.70,-0.06,9.84,-9.70,-0.08,-2.03,9.91
-1.73,-9.71,0.06,9.86,-9.64,-0.08,-2.08,9.86
-1.75,-9.66,0.17,9.82,-9.60,-0.06,-2.07,9.82
-1.72,-9.59,0.06,9.74,-9.64,-0.05,-2.02,9.85
-1.72,-9.60,-0.03,9.75,-9.62,-0.06,-2.01,9.83
-1.73,-9.65,-0.04,9.80,-9.66,-0.06,-2.03,9.87
-1.72,-9.68,-0.01,9.83,-9.70,-0.03,-1.97,9.90
-1.70,-9.65,0.01,9.80,-9.69,-0.05,-2.03,9.90
-1.71,-9.70,0.04,9.85,-9.70,-0.04,-2.01,9.91
-1.72,-9.76,0.07,9.91,-9.69,-0.05,-1.98,9.89
-1.73,-9.67,-0.03,9.82,-9.68,-0.05,-2.00,9.89
-1.73,-9.70,0.07,9.85,-9.62,-0.04,-1.98,9.82
-1.72,-9.63,0.02,9.78,-9.63,-0.04,-1.99,9.84
-1.73,-9.65,0.03,9.80,-9.62,-0.05,-1.97,9.82
-1.72,-9.65,0.01,9.80,-9.63,-0.05,-1.99,9.83
-1.69,-9.62,0.00,9.76,-9.63,-0.08,-2.00,9.84
-1.69,-9.64,0.01,9.79,-9.65,-0.07,-1.97,9.85
-1.70,-9.66,0.03,9.81,-9.64,-0.08,-2.00,9.84
-1.69,-9.66,0.00,9.81,-9.65,-0.08,-2.03,9.86
-1.71,-9.70,0.01,9.85,-9.64,-0.05,-2.01,9.85
-1.73,-9.62,-0.03,9.77,-9.65,-0.08,-2.00,9.85
-1.70,-9.65,-0.04,9.80,-9.65,-0.06,-2.02,9.86
-1.67,-9.66,0.01,9.81,-9.70,-0.07,-2.01,9.90
-1.74,-9.66,0.23,9.82,-9.70,-0.03,-1.97,9.89
-1.74,-9.72,0.02,9.88,-9.70,-0.04,-2.07,9.92
-1.73,-9.75,-0.00,9.91,-9.71,-0.05,-1.98,9.91
-1.71,-9.68,0.09,9.83,-9.71,-0.08,-2.00,9.92
-1.70,-9.66,-0.01,9.80,-9.65,-0.07,-1.97,9.85
-1.74,-9.62,0.02,9.78,-9.63,-0.08,-1.98,9.84
-1.75,-9.64,0.02,9.80,-9.64,-0.06,-1.98,9.85
-1.73,-9.65,0.01,9.80,-9.65,-0.05,-2.05,9.87
-1.70,-9.62,0.00,9.76,-9.61,-0.05,-2.00,9.82
-1.69,-9.65,-0.02,9.80,-9.63,-0.06,-1.99,9.83
-1.71,-9.65,0.00,9.80,-9.69,-0.06,-1.97,9.89
-1.71,-9.67,-0.01,9.82,-9.63,-0.05,-2.01,9.84
-1.70,-9.65,-0.03,9.80,-9.64,-0.06,-2.01,9.85
-1.73,-9.68,-0.02,9.83,-9.64,-0.07,-2.03,9.85
-1.72,-9.66,-0.01,9.81,-9.63,-0.07,-2.01,9.84
-1.71,-9.67,0.04,9.82,-9.66,-0.07,-2.02,9.87
-1.70,-9.66,0.03,9.81,-9.64,-0.06,-1.99,9.85
-1.71,-9.66,0.04,9.81,-9.68,-0.07,-1.97,9.87
-1.72,-9.64,0.01,9.79,-9.65,-0.05,-2.00,9.86
-1.75,-9.66,0.01,9.82,-9.69,-0.06,-2.00,9.89
-1.72,-9.66,-0.01,9.81,-9.69,-0.08,-2.01,9.89
-1.72,-9.70,-0.03,9.85,-9.67,-0.02,-2.01,9.88
-1.73,-9.69,0.01,9.84,-9.66,-0.05,-2.03,9.87
-1.73,-9.68,0.02,9.84,-9.64,-0.06,-1.98,9.84
-1.72,-9.66,0.02,9.81,-9.65,-0.02,-2.00,9.86
-1.70,-9.68,0.02,9.83,-9.67,-0.03,-1.98,9.87
-1.70,-9.65,0.03,9.79,-9.64,-0.07,-2.00,9.85
-1.73,-9.66,0.00,9.81,-9.63,-0.06,-1.98,9.83
-1.71,-9.65,0.00,9.80,-9.63,-0.07,-1.99,9.83
-1.74,-9.68,0.03,9.83,-9.65,-0.07,-1.99,9.85
-1.74,-9.68,0.03,9.83,-9.62,-0.08,-1.97,9.82
-1.71,-9.68,0.04,9.83,-9.63,-0.06,-1.99,9.83
-1.71,-9.66,0.01,9.81,-9.66,-0.06,-2.00,9.86
-1.75,-9.65,0.02,9.81,-9.66,-0.04,-2.02,9.87
-1.72,-9.64,0.01,9.79,-9.65,-0.05,-2.02,9.86
-1.73,-9.65,-0.01,9.80,-9.66,-0.02,-2.03,9.87
-1.74,-9.67,-0.01,9.83,-9.65,-0.02,-2.01,9.86
-1.74,-9.67,-0.01,9.82,-9.65,-0.05,-2.02,9.86
-1.75,-9.71,0.02,9.87,-9.68,-0.06,-2.01,9.89
-1.74,-9.71,0.02,9.86,-9.69,-0.07,-2.03,9.90
-1.71,-9.68,-0.01,9.83,-9.66,-0.04,-2.02,9.87
-1.71,-9.68,0.01,9.83,-9.68,-0.08,-2.04,9.89
-1.73,-9.67,0.01,9.83,-9.67,-0.08,-2.05,9.89
-1.73,-9.69,0.00,9.84,-9.68,-0.07,-2.00,9.88
-1.67,-9.69,-0.01,9.83,-9.65,-0.06,-2.01,9.86
-1.64,-9.69,-0.01,9.82,-9.67,-0.07,-2.08,9.89
-1.77,-9.72,0.12,9.88,-9.70,-0.06,-2.10,9.92
-1.73,-9.70,0.19,9.86,-9.63,-0.04,-2.04,9.85
-1.75,-9.60,0.07,9.76,-9.62,-0.07,-2.09,9.85
-1.67,-9.54,-0.02,9.69,-9.65,-0.04,-2.20,9.90
-1.66,-9.69,-0.06,9.83,-9.59,-0.06,-1.93,9.78
-1.65,-9.62,-0.06,9.76,-9.60,-0.07,-1.98,9.80
-1.76,-9.72,0.08,9.88,-9.68,-0.06,-2.16,9.92
-1.76,-9.70,0.18,9.86,-9.60,-0.07,-2.13,9.83
-1.76,-9.63,0.18,9.80,-9.64,-0.05,-2.10,9.86
-1.74,-9.58,0.04,9.74,-9.61,-0.07,-2.01,9.82
-1.74,-9.63,0.13,9.79,-9.61,-0.03,-2.07,9.83
-1.79,-9.69,0.06,9.86,-9.68,-0.05,-2.06,9.89
-1.74,-9.73,0.18,9.89,-9.71,-0.05,-2.09,9.93
-1.69,-9.69,0.04,9.84,-9.72,-0.06,-2.04,9.94
-1.70,-9.73,0.07,9.88,-9.71,-0.05,-2.06,9.92
-1.75,-9.72,0.07,9.87,-9.66,-0.07,-2.06,9.88
-1.71,-9.70,0.13,9.85,-9.67,-0.09,-2.06,9.89
-1.74,-9.63,0.11,9.79,-9.64,-0.07,-2.06,9.86
-1.73,-9.65,0.27,9.81,-9.61,-0.08,-2.06,9.83
-1.70,-9.61,0.14,9.76,-9.62,-0.07,-2.07,9.84
-1.69,-9.61,0.08,9.75,-9.61,-0.11,-2.06,9.83
-1.69,-9.67,0.14,9.82,-9.62,-0.07,-2.04,9.83
-1.71,-9.63,0.11,9.78,-9.61,-0.08,-2.07,9.83
-1.71,-9.64,0.11,9.79,-9.61,-0.08,-2.04,9.83
-1.71,-9.69,0.11,9.84,-9.59,-0.09,-2.08,9.81
-1.72,-9.66,0.07,9.81,-9.65,-0.08,-2.09,9.88
-1.73,-9.75,0.09,9.90,-9.64,-0.07,-2.09,9.86
-1.70,-9.64,-0.14,9.79,-9.68,-0.04,-2.06,9.89
-1.71,-9.71,-0.01,9.86,-9.64,-0.09,-2.06,9.85
-1.74,-9.74,0.19,9.90,-9.68,-0.05,-2.21,9.93
-1.74,-9.69,0.20,9.85,-9.63,-0.09,-2.04,9.84
-1.72,-9.67,0.16,9.82,-9.67,-0.08,-2.12,9.90
-1.72,-9.63,0.15,9.78,-9.59,-0.11,-2.10,9.82
-1.72,-9.61,0.15,9.76,-9.63,-0.08,-2.10,9.85
-1.71,-9.64,0.10,9.80,-9.64,-0.05,-2.11,9.87
-1.72,-9.62,0.08,9.77,-9.64,-0.05,-2.15,9.88
-1.71,-9.63,0.10,9.78,-9.64,-0.06,-2.12,9.87
-1.69,-9.66,0.11,9.81,-9.65,-0.09,-2.11,9.88
-1.70,-9.69,0.12,9.84,-9.63,-0.08,-2.09,9.86
-1.68,-9.67,0.13,9.82,-9.64,-0.08,-2.08,9.87
-1.71,-9.66,0.16,9.81,-9.67,-0.09,-2.07,9.89
-1.71,-9.68,0.18,9.83,-9.65,-0.08,-2.13,9.88
-1.76,-9.72,0.28,9.88,-9.59,-0.09,-2.10,9.82
-1.73,-9.63,0.13,9.79,-9.63,-0.08,-2.13,9.86
-1.69,-9.62,0.11,9.77,-9.62,-0.08,-2.13,9.85
-1.72,-9.66,0.18,9.81,-9.63,-0.09,-2.13,9.86
-1.70,-9.64,0.07,9.79,-9.62,-0.11,-2.14,9.85
-1.68,-9.66,0.16,9.81,-9.62,-0.11,-2.10,9.85
-1.70,-9.68,0.14,9.83,-9.66,-0.13,-2.18,9.90
-1.71,-9.71,0.12,9.86,-9.62,-0.13,-2.14,9.86
-1.72,-9.70,0.18,9.85,-9.59,-0.09,-2.15,9.83
-1.72,-9.68,0.14,9.83,-9.59,-0.11,-2.13,9.83
-1.75,-9.67,0.22,9.83,-9.65,-0.09,-2.17,9.89
-1.73,-9.67,0.16,9.82,-9.60,-0.11,-2.12,9.83
-1.72,-9.67,0.13,9.83,-9.60,-0.10,-2.19,9.85
-1.71,-9.68,0.10,9.83,-9.63,-0.11,-2.16,9.87
-1.72,-9.68,0.10,9.83,-9.65,-0.10,-2.15,9.89
-1.71,-9.66,0.09,9.81,-9.63,-0.13,-2.15,9.86
-1.70,-9.68,0.19,9.83,-9.64,-0.11,-2.15,9.88
-1.69,-9.63,0.18,9.78,-9.60,-0.10,-2.17,9.85
-1.71,-9.63,0.15,9.78,-9.60,-0.12,-2.15,9.83
-1.70,-9.67,0.19,9.82,-9.60,-0.14,-2.17,9.84
-1.70,-9.64,0.16,9.79,-9.59,-0.13,-2.17,9.83
-1.72,-9.64,0.18,9.79,-9.60,-0.13,-2.15,9.84
-1.70,-9.64,0.17,9.79,-9.61,-0.09,-2.15,9.85
-1.73,-9.77,0.38,9.93,-9.64,-0.10,-2.17,9.88
-1.69,-9.61,0.22,9.76,-9.63,-0.12,-2.17,9.87
-1.73,-9.67,0.18,9.83,-9.61,-0.12,-2.15,9.85
-1.73,-9.68,0.15,9.83,-9.61,-0.11,-2.17,9.86
-1.72,-9.70,0.14,9.85,-9.60,-0.11,-2.18,9.85
-1.73,-9.66,0.23,9.82,-9.63,-0.11,-2.18,9.87
-1.71,-9.65,0.13,9.80,-9.61,-0.10,-2.18,9.85
-1.68,-9.65,0.16,9.80,-9.60,-0.11,-2.17,9.84
-1.72,-9.70,0.14,9.85,-9.63,-0.09,-2.24,9.88
-1.76,-9.73,0.19,9.89,-9.66,-0.12,-2.26,9.92
-1.71,-9.65,0.25,9.80,-9.57,-0.12,-2.13,9.80
-1.69,-9.59,0.14,9.74,-9.58,-0.12,-2.24,9.84
-1.69,-9.63,0.17,9.78,-9.58,-0.12,-2.21,9.84
-1.68,-9.68,0.11,9.83,-9.59,-0.13,-2.16,9.83
-1.63,-9.67,0.15,9.80,-9.61,-0.14,-2.23,9.86
-1.68,-9.66,0.19,9.80,-9.57,-0.15,-2.27,9.83
-1.79,-9.62,0.28,9.79,-9.57,-0.09,-2.21,9.82
-1.79,-9.59,0.20,9.76,-9.60,-0.05,-2.18,9.84
-1.77,-9.58,0.09,9.75,-9.59,-0.03,-2.16,9.83
-1.73,-9.66,0.06,9.81,-9.61,-0.09,-2.17,9.86
-1.73,-9.75,0.17,9.90,-9.68,-0.10,-2.12,9.91
-1.67,-9.72,0.15,9.87,-9.68,-0.15,-2.19,9.92
-1.68,-9.70,0.17,9.85,-9.67,-0.14,-2.15,9.90
-1.69,-9.70,0.18,9.85,-9.63,-0.15,-2.16,9.87
-1.73,-9.65,0.23,9.81,-9.57,-0.12,-2.15,9.81
-1.76,-9.61,0.22,9.78,-9.59,-0.10,-2.19,9.84
-1.77,-9.63,0.22,9.79,-9.59,-0.11,-2.16,9.83
-1.74,-9.63,0.23,9.79,-9.57,-0.11,-2.17,9.81
-1.71,-9.65,0.18,9.80,-9.59,-0.13,-2.15,9.83
-1.71,-9.65,0.17,9.81,-9.59,-0.11,-2.13,9.82
-1.66,-9.61,0.11,9.76,-9.59,-0.12,-2.13,9.83
-1.70,-9.60,0.13,9.75,-9.59,-0.11,-2.18,9.84
-1.71,-9.65,0.16,9.80,-9.63,-0.13,-2.17,9.88
-1.73,-9.62,0.18,9.78,-9.60,-0.07,-2.18,9.85
-1.77,-9.67,0.18,9.83,-9.58,-0.12,-2.20,9.83
-1.68,-9.68,0.12,9.83,-9.65,-0.10,-2.14,9.89
-1.73,-9.69,0.08,9.84,-9.63,-0.10,-2.11,9.86
-1.78,-9.72,0.20,9.88,-9.65,-0.06,-2.24,9.90
-1.75,-9.66,0.15,9.82,-9.66,-0.11,-2.12,9.90
-1.70,-9.62,0.10,9.77,-9.65,-0.08,-2.14,9.88
-1.75,-9.63,0.15,9.79,-9.61,-0.14,-2.12,9.84
-1.73,-9.68,0.22,9.84,-9.61,-0.11,-2.17,9.86
-1.75,-9.65,0.21,9.81,-9.59,-0.10,-2.16,9.83
-1.70,-9.67,0.11,9.82,-9.63,-0.11,-2.13,9.86
-1.71,-9.71,0.10,9.86,-9.64,-0.11,-2.11,9.87
-1.69,-9.66,0.13,9.81,-9.64,-0.13,-2.16,9.88
-1.72,-9.60,0.18,9.75,-9.60,-0.11,-2.15,9.84
-1.73,-9.66,0.32,9.82,-9.57,-0.10,-2.13,9.81
-1.70,-9.62,0.04,9.77,-9.60,-0.13,-2.19,9.85
-1.72,-9.66,0.12,9.82,-9.60,-0.11,-2.15,9.84
-1.75,-9.66,0.13,9.81,-9.59,-0.08,-2.17,9.84
-1.71,-9.66,0.13,9.82,-9.61,-0.09,-2.17,9.85
-1.69,-9.60,0.15,9.75,-9.59,-0.11,-2.15,9.83
-1.70,-9.56,0.12,9.71,-9.60,-0.10,-2.18,9.84
-1.72,-9.65,-0.02,9.81,-9.59,-0.08,-2.16,9.83
-1.73,-9.69,0.18,9.84,-9.62,-0.11,-2.14,9.85
-1.73,-9.67,0.06,9.82,-9.63,-0.06,-2.11,9.86
-1.77,-9.67,0.10,9.83,-9.63,-0.10,-2.13,9.86
-1.76,-9.67,0.12,9.83,-9.65,-0.08,-2.13,9.88
-1.71,-9.64,0.11,9.79,-9.62,-0.10,-2.17,9.86
-1.73,-9.66,0.06,9.81,-9.65,-0.11,-2.15,9.89
-1.75,-9.62,0.06,9.78,-9.63,-0.10,-2.13,9.86
-1.72,-9.68,0.14,9.83,-9.61,-0.09,-2.12,9.84
-1.74,-9.66,0.10,9.81,-9.62,-0.11,-2.15,9.86
-1.74,-9.64,0.10,9.80,-9.62,-0.12,-2.15,9.86
-1.73,-9.65,0.10,9.80,-9.63,-0.12,-2.14,9.86
-1.74,-9.65,0.12,9.81,-9.62,-0.09,-2.14,9.85
-1.71,-9.68,0.11,9.83,-9.61,-0.08,-2.11,9.84
-1.72,-9.67,0.17,9.83,-9.62,-0.12,-2.11,9.85
-1.72,-9.65,0.10,9.80,-9.62,-0.10,-2.12,9.85
-1.73,-9.66,0.15,9.82,-9.60,-0.09,-2.10,9.83
-1.74,-9.65,0.11,9.81,-9.63,-0.10,-2.10,9.85
-1.73,-9.64,0.12,9.79,-9.61,-0.09,-2.12,9.85
-1.73,-9.65,0.10,9.80,-9.65,-0.08,-2.11,9.88
-1.72,-9.66,0.08,9.82,-9.63,-0.11,-2.15,9.87
-1.72,-9.63,0.15,9.78,-9.63,-0.09,-2.12,9.86
-1.76,-9.71,0.31,9.87,-9.63,-0.09,-2.11,9.86
-1.68,-9.68,0.13,9.83,-9.62,-0.07,-2.11,9.85
-1.75,-9.69,0.10,9.85,-9.66,-0.07,-2.16,9.90
-1.79,-9.70,0.10,9.86,-9.68,-0.07,-2.22,9.93
-1.77,-9.71,0.21,9.87,-9.61,-0.10,-2.08,9.83
-1.68,-9.60,0.10,9.74,-9.65,-0.09,-2.17,9.89
-1.71,-9.67,0.09,9.82,-9.62,-0.09,-2.13,9.86
-1.66,-9.77,0.11,9.91,-9.65,-0.11,-2.03,9.86
-1.67,-9.68,0.06,9.83,-9.65,-0.09,-2.11,9.88
-1.74,-9.69,0.23,9.84,-9.65,-0.13,-2.17,9.89
-1.76,-9.62,0.19,9.78,-9.60,-0.10,-2.12,9.83
-1.71,-9.57,0.12,9.72,-9.61,-0.08,-2.05,9.82
-1.70,-9.60,0.08,9.75,-9.61,-0.07,-2.07,9.83
-1.76,-9.64,0.06,9.80,-9.62,-0.07,-2.08,9.84
-1.73,-9.62,-0.05,9.78,-9.65,-0.06,-2.04,9.86
-1.71,-9.68,0.11,9.83,-9.70,-0.07,-2.05,9.91
-1.70,-9.72,0.07,9.86,-9.71,-0.06,-2.08,9.93
-1.72,-9.70,0.06,9.86,-9.69,-0.05,-2.05,9.90
-1.74,-9.69,0.11,9.84,-9.66,-0.07,-2.04,9.87
-1.78,-9.68,0.13,9.85,-9.64,-0.06,-2.04,9.85
-1.77,-9.65,0.10,9.81,-9.61,-0.08,-2.05,9.82
-1.74,-9.63,0.06,9.79,-9.58,-0.07,-2.03,9.79
-1.74,-9.62,0.06,9.78,-9.62,-0.08,-2.05,9.84
-1.71,-9.59,0.08,9.74,-9.63,-0.09,-2.02,9.84
-1.70,-9.62,-0.04,9.76,-9.63,-0.10,-2.02,9.84
-1.71,-9.64,0.04,9.79,-9.63,-0.09,-2.06,9.85
-1.70,-9.65,0.09,9.80,-9.65,-0.10,-2.07,9.86
-1.72,-9.63,0.08,9.78,-9.63,-0.08,-2.04,9.84
-1.73,-9.64,0.11,9.80,-9.64,-0.10,-2.05,9.86
-1.76,-9.70,0.15,9.86,-9.65,-0.10,-2.04,9.87
-1.67,-9.68,0.03,9.82,-9.69,-0.07,-2.04,9.91
-1.77,-9.65,0.01,9.81,-9.68,-0.08,-2.05,9.89
-1.75,-9.68,0.06,9.84,-9.68,-0.05,-2.16,9.91
-1.74,-9.69,0.13,9.85,-9.65,-0.07,-2.02,9.86
-1.67,-9.66,0.11,9.81,-9.69,-0.07,-2.05,9.91
-1.76,-9.67,0.15,9.83,-9.64,-0.13,-2.05,9.86
-1.72,-9.63,0.11,9.78,-9.62,-0.10,-2.09,9.84
-1.72,-9.59,0.01,9.74,-9.64,-0.07,-2.05,9.85
-1.76,-9.65,0.03,9.81,-9.65,-0.07,-2.04,9.86
-1.71,-9.68,0.01,9.83,-9.65,-0.07,-2.04,9.86
-1.72,-9.66,0.01,9.81,-9.65,-0.11,-2.03,9.86
-1.67,-9.67,0.02,9.81,-9.66,-0.11,-2.04,9.87
-1.71,-9.68,0.00,9.83,-9.66,-0.09,-2.07,9.88
-1.76,-9.69,0.05,9.85,-9.63,-0.08,-2.07,9.85
-1.74,-9.69,0.06,9.85,-9.66,-0.12,-2.06,9.88
-1.70,-9.69,0.05,9.84,-9.66,-0.07,-2.08,9.88
-1.72,-9.66,0.06,9.81,-9.64,-0.09,-2.07,9.86
-1.71,-9.64,0.08,9.80,-9.61,-0.07,-2.06,9.83
-1.70,-9.61,0.06,9.76,-9.63,-0.10,-2.05,9.84
-1.71,-9.65,0.05,9.80,-9.63,-0.09,-2.05,9.85
-1.70,-9.65,0.04,9.80,-9.65,-0.08,-2.07,9.87
-1.73,-9.66,0.04,9.81,-9.64,-0.08,-2.06,9.85
-1.73,-9.69,0.05,9.85,-9.65,-0.08,-2.07,9.87
-1.77,-9.66,0.05,9.82,-9.64,-0.05,-2.05,9.85
-1.73,-9.59,0.02,9.74,-9.63,-0.06,-2.05,9.85
-1.73,-9.65,0.03,9.81,-9.64,-0.06,-2.03,9.86
-1.74,-9.66,0.05,9.82,-9.66,-0.06,-2.05,9.87
-1.72,-9.64,0.02,9.79,-9.66,-0.05,-2.05,9.88
-1.75,-9.65,0.05,9.81,-9.64,-0.06,-2.03,9.85
-1.74,-9.66,0.03,9.82,-9.66,-0.07,-2.04,9.87
-1.74,-9.67,0.04,9.82,-9.64,-0.07,-2.02,9.85
-1.72,-9.65,0.05,9.80,-9.63,-0.08,-2.02,9.84
-1.71,-9.62,0.03,9.78,-9.65,-0.09,-2.01,9.86
-1.71,-9.64,0.06,9.79,-9.65,-0.08,-2.02,9.86
-1.74,-9.66,0.07,9.82,-9.64,-0.08,-2.03,9.85
-1.71,-9.67,0.05,9.82,-9.63,-0.08,-2.01,9.84
-1.74,-9.66,0.02,9.81,-9.65,-0.09,-2.03,9.86
-1.73,-9.68,0.03,9.83,-9.65,-0.08,-2.02,9.86
-1.66,-9.46,-0.12,9.61,-9.62,-0.07,-2.01,9.82
-1.73,-9.74,0.21,9.90,-9.66,-0.06,-2.04,9.88
-1.73,-9.67,-0.03,9.82,-9.63,-0.08,-2.03,9.84
-1.73,-9.66,0.03,9.81,-9.64,-0.05,-2.03,9.85
-1.73,-9.66,-0.01,9.81,-9.66,-0.06,-2.04,9.88
-1.76,-9.68,0.04,9.84,-9.68,-0.09,-2.06,9.89
-1.71,-9.70,0.04,9.85,-9.65,-0.05,-2.04,9.87
-1.70,-9.68,-0.01,9.83,-9.69,-0.09,-2.03,9.90
-1.72,-9.72,-0.04,9.87,-9.67,-0.09,-2.04,9.88
-1.79,-9.66,0.12,9.82,-9.70,-0.06,-2.12,9.93
-1.78,-9.65,0.12,9.81,-9.62,-0.07,-1.95,9.82
-1.69,-9.57,-0.06,9.72,-9.65,-0.05,-2.21,9.90
-1.64,-9.67,-0.09,9.81,-9.67,-0.10,-2.05,9.89
-1.70,-9.75,-0.04,9.90,-9.62,-0.09,-1.91,9.81
-1.66,-9.72,-0.00,9.86,-9.69,-0.10,-2.08,9.92
-1.80,-9.77,0.11,9.94,-9.68,-0.07,-2.15,9.92
-1.79,-9.66,0.14,9.82,-9.60,-0.06,-2.09,9.82
-1.70,-9.56,0.10,9.71,-9.61,-0.09,-2.01,9.82
-1.70,-9.54,0.01,9.69,-9.57,-0.06,-2.02,9.79
-1.75,-9.63,0.01,9.78,-9.62,-0.06,-2.06,9.84
-1.75,-9.67,0.03,9.83,-9.67,-0.03,-2.06,9.89
-1.72,-9.68,0.06,9.83,-9.71,-0.05,-2.04,9.92
-1.72,-9.71,0.05,9.87,-9.71,-0.06,-2.04,9.92
-1.73,-9.73,0.05,9.89,-9.70,-0.07,-2.03,9.91
-1.75,-9.74,0.07,9.90,-9.69,-0.07,-2.04,9.90
-1.74,-9.70,0.08,9.85,-9.68,-0.04,-2.01,9.88
-1.72,-9.69,0.04,9.84,-9.65,-0.03,-1.98,9.85
-1.72,-9.66,0.04,9.82,-9.64,-0.08,-2.03,9.85
