Ax,Ay,Az,Amag,Ax2,Ay2,Az2,Amag2
-2.42,-9.48,0.14,9.79,-9.52,0.30,-2.55,9.86
-2.43,-9.50,0.13,9.80,-9.52,0.30,-2.55,9.86
-2.44,-9.52,0.13,9.83,-9.55,0.29,-2.54,9.89
-2.42,-9.50,0.13,9.80,-9.54,0.33,-2.54,9.88
-2.41,-9.52,0.11,9.82,-9.52,0.33,-2.53,9.85
-2.39,-9.48,0.06,9.77,-9.51,0.33,-2.53,9.85
-2.40,-9.52,0.12,9.82,-9.54,0.31,-2.52,9.88
-2.43,-9.51,0.08,9.82,-9.54,0.31,-2.54,9.88
-2.41,-9.53,0.10,9.83,-9.54,0.31,-2.54,9.87
-2.38,-9.53,0.10,9.82,-9.56,0.31,-2.53,9.90
-2.39,-9.55,0.10,9.85,-9.52,0.28,-2.52,9.86
-2.33,-9.52,0.09,9.80,-9.53,0.29,-2.53,9.86
-2.40,-9.55,0.07,9.85,-9.53,0.30,-2.57,9.87
-2.47,-9.60,0.23,9.91,-9.56,0.27,-2.64,9.92
-2.44,-9.56,0.25,9.87,-9.55,0.28,-2.42,9.86
-2.37,-9.40,0.04,9.70,-9.54,0.26,-2.62,9.90
-2.28,-9.57,0.04,9.84,-9.56,0.25,-2.50,9.88
-2.32,-9.57,0.04,9.85,-9.50,0.30,-2.35,9.79
-2.39,-9.57,0.11,9.87,-9.55,0.28,-2.60,9.90
-2.46,-9.61,0.23,9.92,-9.52,0.29,-2.56,9.86
-2.40,-9.45,0.21,9.75,-9.48,0.28,-2.54,9.82
-2.38,-9.41,0.11,9.71,-9.52,0.24,-2.48,9.84
-2.39,-9.46,0.03,9.76,-9.49,0.28,-2.54,9.82
-2.41,-9.50,0.06,9.80,-9.53,0.32,-2.54,9.87
-2.40,-9.52,0.09,9.82,-9.55,0.27,-2.53,9.88
-2.36,-9.56,0.15,9.84,-9.58,0.27,-2.52,9.90
-2.36,-9.56,0.13,9.85,-9.57,0.24,-2.49,9.89
-2.38,-9.57,0.15,9.87,-9.56,0.27,-2.53,9.89
-2.38,-9.55,0.16,9.84,-9.54,0.30,-2.50,9.87
-2.37,-9.52,0.14,9.81,-9.54,0.26,-2.50,9.86
-2.40,-9.49,0.12,9.79,-9.52,0.28,-2.48,9.84
-2.34,-9.49,0.14,9.78,-9.54,0.27,-2.50,9.87
-2.37,-9.51,0.16,9.80,-9.51,0.23,-2.49,9.83
-2.33,-9.48,0.14,9.77,-9.53,0.26,-2.48,9.85
-2.34,-9.51,0.15,9.80,-9.51,0.24,-2.49,9.83
-2.35,-9.49,0.13,9.78,-9.51,0.26,-2.48,9.83
-2.34,-9.50,0.13,9.78,-9.51,0.27,-2.52,9.84
-2.39,-9.50,0.12,9.80,-9.52,0.27,-2.51,9.85
-2.39,-9.49,0.14,9.78,-9.50,0.29,-2.52,9.83
-2.39,-9.50,0.10,9.80,-9.52,0.28,-2.50,9.85
-2.36,-9.52,0.14,9.81,-9.54,0.28,-2.49,9.87
-2.36,-9.54,0.08,9.82,-9.58,0.25,-2.55,9.92
-2.37,-9.56,0.14,9.85,-9.56,0.28,-2.52,9.89
-2.36,-9.58,0.19,9.87,-9.59,0.29,-2.44,9.90
-2.36,-9.54,0.15,9.83,-9.54,0.24,-2.50,9.86
-2.37,-9.52,0.11,9.81,-9.52,0.26,-2.51,9.85
-2.37,-9.51,0.10,9.80,-9.49,0.26,-2.53,9.82
-2.39,-9.50,0.09,9.80,-9.53,0.28,-2.53,9.86
-2.37,-9.50,0.13,9.79,-9.51,0.32,-2.50,9.83
-2.32,-9.51,0.11,9.79,-9.50,0.26,-2.47,9.82
-2.33,-9.53,0.11,9.81,-9.56,0.26,-2.51,9.89
-2.34,-9.52,0.05,9.81,-9.54,0.26,-2.48,9.86
-2.36,-9.54,0.08,9.83,-9.53,0.28,-2.50,9.85
-2.38,-9.54,0.09,9.83,-9.52,0.28,-2.53,9.85
-2.38,-9.53,0.10,9.82,-9.53,0.29,-2.52,9.86
-2.38,-9.56,0.10,9.85,-9.54,0.28,-2.52,9.88
-2.39,-9.54,0.13,9.84,-9.54,0.28,-2.51,9.86
-2.36,-9.53,0.13,9.82,-9.55,0.28,-2.51,9.88
-2.40,-9.51,0.13,9.81,-9.54,0.27,-2.51,9.87
-2.36,-9.54,0.11,9.83,-9.56,0.28,-2.51,9.88
-2.37,-9.50,0.12,9.79,-9.53,0.26,-2.50,9.86
-2.40,-9.51,0.12,9.81,-9.54,0.27,-2.51,9.87
-2.37,-9.53,0.10,9.82,-9.53,0.28,-2.51,9.86
-2.42,-9.52,0.11,9.82,-9.55,0.28,-2.51,9.88
-2.40,-9.52,0.13,9.82,-9.54,0.31,-2.51,9.87
-2.38,-9.51,0.11,9.81,-9.51,0.30,-2.51,9.84
-2.40,-9.53,0.10,9.83,-9.56,0.30,-2.51,9.89
-2.37,-9.50,0.10,9.79,-9.53,0.30,-2.52,9.87
-2.37,-9.50,0.12,9.79,-9.50,0.29,-2.51,9.83
-2.35,-9.52,0.11,9.81,-9.52,0.29,-2.51,9.85
-2.37,-9.51,0.12,9.80,-9.49,0.29,-2.48,9.82
-2.36,-9.51,0.16,9.80,-9.53,0.31,-2.49,9.86
-2.37,-9.50,0.12,9.79,-9.52,0.28,-2.51,9.85
-2.36,-9.49,0.13,9.78,-9.52,0.26,-2.46,9.83
-2.38,-9.50,0.10,9.79,-9.54,0.30,-2.48,9.86
-2.38,-9.52,0.09,9.82,-9.53,0.29,-2.51,9.86
-2.38,-9.54,0.10,9.83,-9.52,0.31,-2.53,9.86
-2.39,-9.53,0.13,9.82,-9.52,0.29,-2.49,9.85
-2.40,-9.55,0.12,9.84,-9.53,0.30,-2.51,9.86
-2.39,-9.52,0.12,9.82,-9.52,0.29,-2.53,9.86
-2.39,-9.53,0.10,9.82,-9.53,0.30,-2.50,9.86
-2.36,-9.65,0.10,9.93,-9.51,0.32,-2.52,9.84
-2.33,-9.40,-0.13,9.69,-9.52,0.30,-2.51,9.85
-2.38,-9.53,0.08,9.82,-9.52,0.29,-2.51,9.85
-2.39,-9.51,0.07,9.81,-9.53,0.28,-2.50,9.85
-2.36,-9.52,0.12,9.80,-9.53,0.27,-2.49,9.85
-2.38,-9.54,0.10,9.83,-9.54,0.28,-2.53,9.87
-2.37,-9.57,0.08,9.86,-9.57,0.26,-2.50,9.89
-2.42,-9.54,0.05,9.84,-9.53,0.28,-2.49,9.86
-2.40,-9.54,0.06,9.84,-9.53,0.30,-2.54,9.87
-2.36,-9.54,0.07,9.83,-9.53,0.29,-2.53,9.86
-2.34,-9.50,0.07,9.78,-9.53,0.29,-2.51,9.86
-2.44,-9.57,0.14,9.87,-9.52,0.33,-2.58,9.87
-2.42,-9.57,0.32,9.88,-9.51,0.30,-2.63,9.87
-2.40,-9.46,0.20,9.76,-9.49,0.28,-2.48,9.81
-2.32,-9.37,-0.01,9.65,-9.56,0.27,-2.66,9.93
-2.31,-9.58,-0.03,9.85,-9.51,0.25,-2.39,9.81
-2.32,-9.53,0.00,9.81,-9.53,0.31,-2.43,9.84
-2.41,-9.55,0.15,9.85,-9.52,0.26,-2.60,9.87
-2.42,-9.56,0.22,9.86,-9.52,0.28,-2.51,9.85
-2.40,-9.46,0.20,9.76,-9.50,0.26,-2.54,9.84
-2.39,-9.45,0.10,9.75,-9.48,0.27,-2.51,9.81
-2.40,-9.47,0.01,9.77,-9.51,0.30,-2.57,9.85
-2.41,-9.51,0.04,9.81,-9.54,0.32,-2.48,9.87
-2.39,-9.54,0.08,9.83,-9.57,0.31,-2.49,9.89
-2.35,-9.56,0.11,9.85,-9.62,0.30,-2.53,9.95
-2.35,-9.57,0.08,9.85,-9.59,0.28,-2.48,9.91
-2.41,-9.57,0.11,9.87,-9.56,0.31,-2.51,9.89
-2.38,-9.54,0.12,9.83,-9.52,0.30,-2.51,9.85
-2.43,-9.51,0.14,9.82,-9.53,0.28,-2.47,9.85
-2.41,-9.51,0.12,9.81,-9.50,0.30,-2.48,9.82
-2.38,-9.49,0.10,9.78,-9.52,0.28,-2.46,9.84
-2.37,-9.50,0.11,9.79,-9.55,0.29,-2.44,9.86
-2.35,-9.48,0.09,9.77,-9.51,0.30,-2.48,9.83
-2.36,-9.51,0.09,9.80,-9.51,0.29,-2.46,9.83
-2.36,-9.50,0.12,9.79,-9.53,0.28,-2.50,9.85
-2.35,-9.51,0.08,9.79,-9.54,0.28,-2.51,9.86
-2.39,-9.52,0.07,9.82,-9.52,0.29,-2.50,9.85
-2.37,-9.54,0.06,9.83,-9.53,0.28,-2.51,9.86
-2.32,-9.53,0.07,9.81,-9.57,0.27,-2.50,9.89
-2.38,-9.53,0.07,9.82,-9.54,0.29,-2.50,9.87
-2.37,-9.57,0.12,9.86,-9.58,0.31,-2.57,9.92
-2.40,-9.56,0.11,9.85,-9.59,0.29,-2.43,9.90
-2.38,-9.54,0.15,9.83,-9.57,0.29,-2.52,9.90
-2.40,-9.54,0.11,9.84,-9.52,0.25,-2.52,9.85
-2.38,-9.51,0.07,9.80,-9.54,0.27,-2.51,9.87
-2.38,-9.52,0.05,9.82,-9.52,0.30,-2.51,9.85
-2.38,-9.52,0.05,9.81,-9.54,0.34,-2.53,9.88
-2.37,-9.50,0.08,9.80,-9.52,0.32,-2.52,9.86
-2.32,-9.54,0.05,9.82,-9.51,0.29,-2.50,9.84
-2.33,-9.51,0.08,9.79,-9.52,0.29,-2.46,9.83
-2.38,-9.52,0.07,9.81,-9.53,0.27,-2.52,9.86
-2.39,-9.50,0.08,9.79,-9.50,0.29,-2.51,9.83
-2.37,-9.51,0.09,9.80,-9.51,0.28,-2.51,9.84
-2.39,-9.53,0.10,9.82,-9.53,0.29,-2.49,9.85
-2.39,-9.53,0.13,9.83,-9.51,0.28,-2.49,9.83
-2.37,-9.51,0.08,9.80,-9.53,0.29,-2.47,9.85
-2.37,-9.54,0.08,9.83,-9.54,0.28,-2.48,9.86
-2.38,-9.50,0.08,9.80,-9.56,0.27,-2.52,9.89
-2.38,-9.51,0.04,9.81,-9.56,0.27,-2.52,9.89
-2.38,-9.53,0.07,9.82,-9.53,0.29,-2.47,9.85
-2.39,-9.55,0.10,9.84,-9.55,0.30,-2.53,9.88
-2.39,-9.53,0.13,9.83,-9.55,0.30,-2.52,9.88
-2.40,-9.54,0.12,9.84,-9.55,0.28,-2.52,9.88
-2.40,-9.52,0.11,9.82,-9.51,0.28,-2.50,9.84
-2.37,-9.50,0.13,9.79,-9.51,0.31,-2.51,9.85
-2.37,-9.50,0.11,9.79,-9.50,0.31,-2.49,9.83
-2.35,-9.49,0.10,9.78,-9.54,0.30,-2.51,9.87
-2.37,-9.51,0.06,9.80,-9.55,0.31,-2.51,9.88
-2.39,-9.52,0.08,9.82,-9.52,0.32,-2.52,9.85
-2.38,-9.53,0.08,9.82,-9.52,0.29,-2.50,9.85
-2.39,-9.55,0.11,9.84,-9.53,0.25,-2.52,9.86
-2.36,-9.53,0.08,9.82,-9.54,0.25,-2.50,9.87
-2.38,-9.53,0.10,9.82,-9.54,0.29,-2.49,9.87
-2.38,-9.52,0.07,9.82,-9.55,0.30,-2.52,9.88
-2.39,-9.54,0.06,9.84,-9.52,0.31,-2.54,9.86
-2.37,-9.52,0.08,9.81,-9.55,0.32,-2.54,9.88
-2.37,-9.52,0.07,9.81,-9.55,0.31,-2.53,9.88
-2.42,-9.53,0.09,9.84,-9.56,0.32,-2.56,9.90
-2.39,-9.53,0.08,9.83,-9.58,0.29,-2.58,9.92
-2.39,-9.54,0.09,9.83,-9.56,0.28,-2.56,9.90
-2.41,-9.54,0.09,9.84,-9.56,0.31,-2.54,9.89
-2.39,-9.54,0.07,9.84,-9.54,0.33,-2.53,9.88
-2.38,-9.55,0.10,9.84,-9.55,0.27,-2.54,9.89
-2.41,-9.54,0.12,9.84,-9.56,0.25,-2.51,9.89
-2.43,-9.51,0.12,9.82,-9.52,0.29,-2.50,9.85
-2.43,-9.55,0.15,9.85,-9.53,0.28,-2.55,9.87
-2.40,-9.54,0.10,9.84,-9.54,0.29,-2.59,9.89
-2.37,-9.51,0.15,9.80,-9.53,0.27,-2.59,9.88
-2.36,-9.48,0.15,9.77,-9.50,0.27,-2.58,9.85
-2.33,-9.47,0.10,9.75,-9.50,0.29,-2.53,9.84
-2.32,-9.49,0.14,9.77,-9.49,0.25,-2.58,9.84
-2.37,-9.58,0.17,9.87,-9.53,0.27,-2.62,9.89
-2.39,-9.57,0.31,9.87,-9.52,0.27,-2.45,9.84
-2.36,-9.41,0.20,9.70,-9.49,0.24,-2.51,9.82
-2.30,-9.42,0.00,9.70,-9.54,0.23,-2.72,9.93
-2.36,-9.59,0.08,9.88,-9.50,0.28,-2.44,9.81
-2.34,-9.54,0.05,9.83,-9.49,0.28,-2.72,9.88
-2.44,-9.56,0.28,9.87,-9.49,0.27,-2.72,9.88
-2.43,-9.52,0.31,9.82,-9.47,0.25,-2.60,9.82
-2.39,-9.40,0.21,9.70,-9.48,0.25,-2.56,9.82
-2.37,-9.45,0.12,9.75,-9.46,0.27,-2.54,9.80
-2.39,-9.48,0.08,9.78,-9.47,0.30,-2.59,9.82
-2.40,-9.52,0.15,9.82,-9.57,0.30,-2.60,9.92
-2.41,-9.58,0.25,9.88,-9.56,0.31,-2.56,9.90
-2.38,-9.56,0.22,9.85,-9.59,0.25,-2.58,9.94
-2.35,-9.59,0.21,9.87,-9.55,0.28,-2.55,9.89
-2.40,-9.57,0.24,9.87,-9.54,0.28,-2.60,9.89
-2.41,-9.52,0.23,9.82,-9.51,0.26,-2.56,9.85
-2.40,-9.51,0.25,9.81,-9.49,0.26,-2.50,9.82
-2.41,-9.48,0.19,9.78,-9.49,0.28,-2.54,9.83
-2.42,-9.47,0.24,9.78,-9.48,0.26,-2.55,9.82
-2.43,-9.54,0.28,9.85,-9.49,0.27,-2.56,9.83
-2.39,-9.48,0.25,9.78,-9.50,0.26,-2.54,9.83
-2.39,-9.50,0.25,9.80,-9.50,0.28,-2.60,9.85
-2.33,-9.49,0.21,9.77,-9.50,0.24,-2.63,9.86
-2.37,-9.54,0.23,9.84,-9.50,0.23,-2.59,9.85
-2.38,-9.53,0.24,9.82,-9.54,0.26,-2.63,9.90
-2.36,-9.52,0.22,9.81,-9.51,0.25,-2.59,9.86
-2.34,-9.53,0.15,9.82,-9.46,0.28,-2.55,9.81
-2.39,-9.55,0.23,9.84,-9.55,0.30,-2.69,9.92
-2.41,-9.59,0.34,9.90,-9.51,0.26,-2.61,9.87
-2.39,-9.54,0.31,9.84,-9.56,0.26,-2.56,9.90
-2.34,-9.50,0.15,9.78,-9.49,0.23,-2.65,9.86
-2.38,-9.48,0.33,9.78,-9.46,0.26,-2.65,9.83
-2.42,-9.64,0.33,9.94,-9.47,0.28,-2.66,9.84
-2.41,-9.52,0.21,9.82,-9.48,0.27,-2.61,9.84
-2.37,-9.52,0.28,9.81,-9.51,0.31,-2.62,9.87
-2.39,-9.52,0.25,9.82,-9.52,0.26,-2.59,9.87
-2.37,-9.54,0.29,9.84,-9.50,0.26,-2.60,9.86
-2.40,-9.60,0.34,9.90,-9.55,0.25,-2.62,9.91
-2.36,-9.54,0.19,9.83,-9.53,0.27,-2.62,9.89
-2.37,-9.56,0.29,9.86,-9.49,0.27,-2.68,9.87
-2.34,-9.50,0.25,9.79,-9.49,0.24,-2.68,9.87
-2.34,-9.55,0.26,9.84,-9.49,0.23,-2.63,9.85
-2.35,-9.48,0.29,9.77,-9.49,0.23,-2.63,9.84
-2.35,-9.49,0.33,9.78,-9.50,0.22,-2.65,9.86
-2.36,-9.54,0.26,9.83,-9.51,0.24,-2.65,9.88
-2.39,-9.53,0.34,9.83,-9.51,0.22,-2.66,9.88
-2.40,-9.52,0.31,9.82,-9.51,0.23,-2.63,9.87
-2.40,-9.51,0.20,9.81,-9.52,0.22,-2.66,9.89
-2.40,-9.53,0.27,9.83,-9.53,0.24,-2.65,9.89
-2.41,-9.52,0.31,9.82,-9.51,0.25,-2.62,9.87
-2.40,-9.59,0.32,9.89,-9.50,0.26,-2.64,9.87
-2.41,-9.50,0.29,9.81,-9.50,0.25,-2.65,9.86
-2.34,-9.50,0.26,9.79,-9.49,0.25,-2.66,9.85
-2.47,-9.43,-0.08,9.75,-9.46,0.24,-2.62,9.82
-2.40,-9.55,0.60,9.87,-9.46,0.24,-2.64,9.82
-2.37,-9.55,0.31,9.84,-9.51,0.24,-2.64,9.87
-2.34,-9.48,0.35,9.77,-9.45,0.22,-2.66,9.82
-2.35,-9.50,0.30,9.79,-9.47,0.20,-2.68,9.84
-2.38,-9.52,0.33,9.82,-9.51,0.24,-2.65,9.87
-2.37,-9.49,0.32,9.79,-9.48,0.23,-2.67,9.85
-2.38,-9.51,0.30,9.80,-9.49,0.21,-2.66,9.86
-2.32,-9.49,0.26,9.77,-9.50,0.25,-2.68,9.88
-2.36,-9.52,0.32,9.81,-9.51,0.25,-2.68,9.89
-2.37,-9.52,0.35,9.82,-9.50,0.27,-2.66,9.87
-2.38,-9.63,0.36,9.93,-9.50,0.25,-2.67,9.87
-2.40,-9.59,0.37,9.90,-9.51,0.26,-2.69,9.88
-2.37,-9.57,0.28,9.86,-9.48,0.22,-2.65,9.84
-2.38,-9.52,0.34,9.82,-9.51,0.24,-2.72,9.89
-2.39,-9.53,0.35,9.83,-9.49,0.21,-2.68,9.87
-2.36,-9.53,0.30,9.82,-9.51,0.24,-2.67,9.88
-2.36,-9.60,0.43,9.90,-9.49,0.23,-2.71,9.87
-2.38,-9.56,0.18,9.86,-9.51,0.23,-2.72,9.89
-2.38,-9.52,0.34,9.82,-9.53,0.20,-2.75,9.92
-2.39,-9.49,0.37,9.79,-9.43,0.20,-2.62,9.79
-2.37,-9.44,0.33,9.74,-9.48,0.24,-2.69,9.86
-2.33,-9.47,0.25,9.75,-9.44,0.20,-2.68,9.81
-2.29,-9.52,0.27,9.79,-9.50,0.19,-2.68,9.87
-2.27,-9.51,0.29,9.78,-9.47,0.17,-2.78,9.87
-2.41,-9.51,0.37,9.82,-9.39,0.18,-2.78,9.79
-2.46,-9.50,0.45,9.82,-9.47,0.24,-2.71,9.85
-2.42,-9.45,0.33,9.76,-9.47,0.30,-2.66,9.84
-2.41,-9.49,0.29,9.80,-9.48,0.25,-2.73,9.87
-2.42,-9.58,0.25,9.89,-9.54,0.26,-2.68,9.91
-2.39,-9.57,0.31,9.87,-9.53,0.25,-2.66,9.90
-2.35,-9.57,0.31,9.86,-9.53,0.24,-2.69,9.90
-2.33,-9.57,0.28,9.85,-9.53,0.22,-2.69,9.90
-2.43,-9.68,0.82,10.01,-9.50,0.23,-2.71,9.88
-2.37,-9.52,0.37,9.82,-9.49,0.24,-2.69,9.87
-2.40,-9.49,0.29,9.80,-9.46,0.25,-2.71,9.84
-2.41,-9.50,0.36,9.80,-9.43,0.27,-2.66,9.80
-2.40,-9.48,0.35,9.78,-9.44,0.24,-2.67,9.81
-2.38,-9.46,0.29,9.76,-9.43,0.22,-2.69,9.81
-2.34,-9.45,0.22,9.74,-9.41,0.25,-2.64,9.78
-2.36,-9.47,0.33,9.76,-9.48,0.25,-2.70,9.86
-2.39,-9.49,0.37,9.80,-9.49,0.23,-2.69,9.86
-2.39,-9.50,0.35,9.81,-9.49,0.23,-2.71,9.87
-2.43,-9.52,0.32,9.83,-9.48,0.22,-2.70,9.86
-2.36,-9.49,0.29,9.79,-9.53,0.22,-2.70,9.91
-2.36,-9.52,0.25,9.82,-9.49,0.27,-2.60,9.84
-2.39,-9.53,0.31,9.83,-9.54,0.22,-2.86,9.96
-2.40,-9.56,0.40,9.87,-9.48,0.20,-2.70,9.86
-2.35,-9.51,0.34,9.80,-9.49,0.22,-2.72,9.87
-2.36,-9.53,0.31,9.82,-9.47,0.22,-2.65,9.83
-2.42,-9.51,0.38,9.82,-9.49,0.24,-2.72,9.88
-2.46,-9.53,0.43,9.86,-9.46,0.24,-2.71,9.84
-2.37,-9.47,0.38,9.77,-9.45,0.25,-2.66,9.82
-2.37,-9.50,0.26,9.79,-9.46,0.22,-2.64,9.82
-2.40,-9.51,0.28,9.81,-9.47,0.25,-2.67,9.84
-2.40,-9.49,0.33,9.79,-9.50,0.23,-2.71,9.88
-2.37,-9.50,0.33,9.80,-9.49,0.25,-2.74,9.88
-2.42,-9.52,0.33,9.83,-9.47,0.23,-2.74,9.86
-2.39,-9.54,0.35,9.84,-9.46,0.20,-2.70,9.84
-2.38,-9.52,0.34,9.82,-9.46,0.22,-2.68,9.84
-2.37,-9.52,0.33,9.81,-9.46,0.22,-2.70,9.84
-2.37,-9.47,0.36,9.77,-9.51,0.24,-2.70,9.88
-2.35,-9.50,0.36,9.80,-9.47,0.20,-2.70,9.85
-2.38,-9.50,0.34,9.80,-9.49,0.20,-2.67,9.86
-2.35,-9.52,0.33,9.81,-9.49,0.20,-2.72,9.87
-2.38,-9.56,0.31,9.86,-9.49,0.20,-2.70,9.86
-2.38,-9.55,0.36,9.85,-9.48,0.21,-2.70,9.86
-2.39,-9.55,0.36,9.85,-9.49,0.20,-2.69,9.87
-2.39,-9.51,0.32,9.81,-9.48,0.22,-2.70,9.86
-2.38,-9.51,0.31,9.81,-9.49,0.22,-2.70,9.87
-2.40,-9.50,0.34,9.80,-9.48,0.22,-2.69,9.86
-2.37,-9.51,0.34,9.81,-9.49,0.21,-2.69,9.86
-2.38,-9.52,0.34,9.82,-9.49,0.21,-2.68,9.87
-2.36,-9.50,0.31,9.80,-9.46,0.21,-2.70,9.84
-2.36,-9.51,0.33,9.80,-9.47,0.22,-2.69,9.85
-2.36,-9.54,0.35,9.83,-9.44,0.21,-2.69,9.82
-2.34,-9.52,0.32,9.81,-9.45,0.22,-2.69,9.82
-2.34,-9.50,0.33,9.79,-9.49,0.21,-2.68,9.86
-2.37,-9.50,0.33,9.79,-9.46,0.21,-2.70,9.84
-2.38,-9.52,0.31,9.81,-9.50,0.22,-2.71,9.88
-2.38,-9.54,0.35,9.84,-9.49,0.21,-2.69,9.87
-2.38,-9.51,0.35,9.81,-9.50,0.23,-2.69,9.88
-2.34,-9.48,0.28,9.77,-9.47,0.21,-2.68,9.84
-2.40,-9.51,0.27,9.81,-9.46,0.23,-2.71,9.85
-2.45,-9.54,0.30,9.86,-9.51,0.23,-2.78,9.91
-2.42,-9.52,0.45,9.83,-9.48,0.25,-2.73,9.87
-2.41,-9.46,0.31,9.77,-9.44,0.21,-2.64,9.80
-2.33,-9.40,0.21,9.69,-9.46,0.24,-2.71,9.85
-2.33,-9.57,0.15,9.85,-9.50,0.20,-2.70,9.88
-2.33,-9.57,0.28,9.85,-9.50,0.20,-2.68,9.87
-2.39,-9.55,0.30,9.85,-9.49,0.19,-2.79,9.89
-2.43,-9.52,0.38,9.83,-9.43,0.20,-2.75,9.83
-2.41,-9.49,0.33,9.80,-9.46,0.22,-2.67,9.83
-2.39,-9.46,0.25,9.76,-9.44,0.23,-2.64,9.80
-2.37,-9.52,0.26,9.81,-9.51,0.25,-2.68,9.88
-2.37,-9.58,0.23,9.87,-9.52,0.22,-2.69,9.89
-2.36,-9.56,0.26,9.85,-9.55,0.22,-2.68,9.93
-2.32,-9.56,0.25,9.84,-9.54,0.22,-2.67,9.91
-2.36,-9.57,0.26,9.87,-9.51,0.22,-2.67,9.88
-2.39,-9.54,0.28,9.84,-9.50,0.22,-2.68,9.87
-2.40,-9.55,0.29,9.85,-9.52,0.24,-2.68,9.89
-2.41,-9.50,0.26,9.81,-9.48,0.25,-2.64,9.85
-2.41,-9.50,0.31,9.81,-9.48,0.25,-2.65,9.84
-2.38,-9.49,0.30,9.79,-9.45,0.25,-2.65,9.82
-2.38,-9.46,0.29,9.76,-9.48,0.21,-2.63,9.84
-2.34,-9.44,0.19,9.73,-9.46,0.22,-2.66,9.83
-2.35,-9.51,0.19,9.80,-9.49,0.21,-2.67,9.86
-2.37,-9.49,0.22,9.79,-9.47,0.22,-2.68,9.85
-2.37,-9.52,0.23,9.81,-9.46,0.22,-2.69,9.84
-2.38,-9.49,0.24,9.79,-9.52,0.23,-2.68,9.89
-2.41,-9.54,0.24,9.85,-9.52,0.23,-2.66,9.88
-2.33,-9.53,0.22,9.81,-9.53,0.25,-2.60,9.88
-2.39,-9.51,0.18,9.81,-9.49,0.23,-2.71,9.88
-2.38,-9.58,0.31,9.87,-9.50,0.23,-2.77,9.90
-2.40,-9.58,0.32,9.88,-9.57,0.23,-2.64,9.93
-2.37,-9.50,0.23,9.80,-9.50,0.21,-2.62,9.86
-2.42,-9.56,0.31,9.86,-9.51,0.24,-2.70,9.89
-2.41,-9.53,0.31,9.84,-9.49,0.25,-2.68,9.87
-2.42,-9.48,0.23,9.78,-9.47,0.24,-2.65,9.84
-2.39,-9.47,0.20,9.77,-9.47,0.23,-2.62,9.83
-2.35,-9.53,0.22,9.82,-9.48,0.21,-2.66,9.85
-2.32,-9.51,0.27,9.79,-9.49,0.23,-2.63,9.85
-2.33,-9.52,0.15,9.81,-9.49,0.19,-2.67,9.86
-2.36,-9.51,0.20,9.80,-9.48,0.23,-2.64,9.84
-2.38,-9.52,0.24,9.82,-9.48,0.22,-2.68,9.85
-2.39,-9.52,0.23,9.82,-9.50,0.25,-2.65,9.86
-2.40,-9.51,0.24,9.81,-9.49,0.22,-2.65,9.86
-2.39,-9.50,0.24,9.80,-9.50,0.23,-2.65,9.86
-2.37,-9.53,0.24,9.82,-9.47,0.22,-2.65,9.83
-2.37,-9.50,0.20,9.80,-9.49,0.23,-2.64,9.86
-2.37,-9.52,0.26,9.82,-9.49,0.23,-2.63,9.85
-2.38,-9.53,0.30,9.83,-9.49,0.24,-2.64,9.86
-2.38,-9.53,0.29,9.82,-9.48,0.23,-2.64,9.85
-2.38,-9.49,0.27,9.79,-9.51,0.23,-2.68,9.88
-2.39,-9.53,0.23,9.83,-9.51,0.22,-2.63,9.87
-2.38,-9.52,0.28,9.82,-9.52,0.22,-2.63,9.88
-2.41,-9.49,0.20,9.80,-9.50,0.24,-2.65,9.86
-2.42,-9.53,0.22,9.84,-9.52,0.23,-2.69,9.89
-2.43,-9.52,0.21,9.83,-9.49,0.22,-2.67,9.86
-2.42,-9.53,0.23,9.83,-9.49,0.22,-2.66,9.86
-2.43,-9.53,0.19,9.84,-9.51,0.22,-2.65,9.88
-2.38,-9.53,0.25,9.83,-9.51,0.21,-2.65,9.88
-2.38,-9.52,0.25,9.82,-9.49,0.21,-2.63,9.85
-2.31,-9.56,0.27,9.84,-9.52,0.22,-2.60,9.87
-2.36,-9.52,0.18,9.81,-9.51,0.22,-2.60,9.86
-2.32,-9.50,0.13,9.78,-9.50,0.22,-2.63,9.86
-2.38,-9.55,0.29,9.85,-9.52,0.22,-2.65,9.89
-2.39,-9.55,0.23,9.85,-9.54,0.24,-2.64,9.91
-2.35,-9.51,0.16,9.79,-9.49,0.23,-2.62,9.85
-2.33,-9.48,0.17,9.77,-9.52,0.25,-2.60,9.87
-2.39,-9.55,0.17,9.85,-9.50,0.22,-2.69,9.87
-2.47,-9.60,0.36,9.92,-9.53,0.26,-2.74,9.92
-2.44,-9.57,0.45,9.89,-9.49,0.24,-2.58,9.84
-2.31,-9.40,0.15,9.68,-9.40,0.23,-2.54,9.74
-2.27,-9.51,0.10,9.78,-9.53,0.18,-2.70,9.90
-2.31,-9.54,0.18,9.82,-9.42,0.22,-2.37,9.72
-2.35,-9.57,0.25,9.86,-9.55,0.23,-2.79,9.95
-2.43,-9.58,0.34,9.89,-9.45,0.22,-2.72,9.84
-2.40,-9.49,0.33,9.80,-9.47,0.24,-2.63,9.83
-2.34,-9.45,0.20,9.74,-9.47,0.21,-2.49,9.79
-2.39,-9.46,0.11,9.76,-9.50,0.20,-2.66,9.87
-2.43,-9.51,0.25,9.82,-9.52,0.26,-2.63,9.88
-2.45,-9.56,0.17,9.87,-9.52,0.26,-2.63,9.88
-2.40,-9.66,0.27,9.95,-9.59,0.24,-2.62,9.94
-2.36,-9.57,0.19,9.86,-9.56,0.22,-2.61,9.91
-2.34,-9.57,0.34,9.86,-9.57,0.25,-2.55,9.91
-2.37,-9.56,0.21,9.85,-9.56,0.21,-2.58,9.90
-2.36,-9.51,0.24,9.80,-9.52,0.26,-2.47,9.84
-2.35,-9.54,0.26,9.83,-9.50,0.26,-2.54,9.84
-2.35,-9.50,0.23,9.79,-9.52,0.24,-2.52,9.85
-2.33,-9.53,0.21,9.81,-9.52,0.24,-2.51,9.85
-2.40,-9.53,0.24,9.83,-9.56,0.22,-2.53,9.89
-2.36,-9.52,0.21,9.81,-9.52,0.24,-2.52,9.85
-2.40,-9.50,0.27,9.81,-9.51,0.25,-2.53,9.85
-2.37,-9.49,0.19,9.79,-9.53,0.25,-2.54,9.87
-2.41,-9.51,0.17,9.81,-9.48,0.25,-2.55,9.82
-2.42,-9.49,0.14,9.80,-9.49,0.27,-2.55,9.83
-2.42,-9.51,0.17,9.82,-9.47,0.27,-2.44,9.79
-2.39,-9.52,0.19,9.82,-9.59,0.24,-2.63,9.95
-2.43,-9.53,0.16,9.83,-9.51,0.25,-2.53,9.84
-2.43,-9.53,0.16,9.84,-9.59,0.28,-2.67,9.96
-2.42,-9.43,0.19,9.74,-9.55,0.29,-2.53,9.89
-2.38,-9.55,0.19,9.85,-9.57,0.25,-2.57,9.91
-2.38,-9.51,0.17,9.80,-9.49,0.23,-2.55,9.83
-2.39,-9.48,0.18,9.78,-9.51,0.27,-2.54,9.85
-2.41,-9.53,0.14,9.83,-9.50,0.26,-2.56,9.84
-2.40,-9.55,0.17,9.84,-9.54,0.30,-2.56,9.88
-2.38,-9.53,0.18,9.83,-9.54,0.24,-2.55,9.87
-2.34,-9.55,0.13,9.83,-9.54,0.22,-2.54,9.88
-2.33,-9.53,0.12,9.81,-9.52,0.22,-2.51,9.85
-2.35,-9.52,0.11,9.81,-9.55,0.24,-2.54,9.88
-2.34,-9.51,0.05,9.79,-9.55,0.26,-2.56,9.89
-2.36,-9.54,0.16,9.83,-9.51,0.24,-2.58,9.86
-2.38,-9.53,0.19,9.83,-9.51,0.22,-2.57,9.85
-2.37,-9.52,0.23,9.81,-9.52,0.23,-2.56,9.86
-2.36,-9.53,0.22,9.82,-9.52,0.23,-2.55,9.86
-2.33,-9.50,0.17,9.79,-9.52,0.23,-2.54,9.86
-2.35,-9.50,0.14,9.79,-9.50,0.22,-2.52,9.83
-2.33,-9.50,0.13,9.78,-9.51,0.23,-2.54,9.85
-2.38,-9.51,0.17,9.80,-9.52,0.22,-2.56,9.86
-2.35,-9.51,0.17,9.80,-9.54,0.22,-2.56,9.88
-2.33,-9.53,0.18,9.81,-9.50,0.25,-2.55,9.84
-2.39,-9.53,0.17,9.83,-9.52,0.23,-2.54,9.85
-2.40,-9.52,0.16,9.82,-9.51,0.21,-2.55,9.85
-2.38,-9.52,0.15,9.82,-9.50,0.21,-2.54,9.84
-2.32,-9.30,0.13,9.58,-9.52,0.24,-2.55,9.85
-2.34,-9.51,0.25,9.80,-9.53,0.22,-2.55,9.86
-2.35,-9.53,0.15,9.81,-9.57,0.24,-2.57,9.91
-2.37,-9.52,0.14,9.81,-9.54,0.27,-2.57,9.88
-2.38,-9.51,0.10,9.81,-9.52,0.25,-2.50,9.84
-2.35,-9.54,0.13,9.83,-9.53,0.25,-2.56,9.87
-2.35,-9.50,0.05,9.79,-9.54,0.24,-2.56,9.88
-2.37,-9.53,0.14,9.83,-9.55,0.25,-2.58,9.90
-2.37,-9.54,0.13,9.83,-9.55,0.26,-2.57,9.89
-2.38,-9.52,0.13,9.82,-9.54,0.26,-2.57,9.88
-2.36,-9.54,0.10,9.83,-9.54,0.25,-2.56,9.88
-2.35,-9.48,0.08,9.77,-9.52,0.25,-2.56,9.86
-2.40,-9.54,0.14,9.83,-9.57,0.25,-2.54,9.90
-2.37,-9.54,0.16,9.83,-9.54,0.26,-2.54,9.87
-2.37,-9.51,0.11,9.81,-9.54,0.24,-2.55,9.88
-2.35,-9.51,0.09,9.79,-9.50,0.26,-2.57,9.85
-2.34,-9.53,0.09,9.82,-9.52,0.26,-2.55,9.86
-2.38,-9.54,0.12,9.83,-9.53,0.25,-2.51,9.86
-2.28,-9.50,0.09,9.77,-9.51,0.27,-2.50,9.83
-2.35,-9.49,0.08,9.78,-9.52,0.26,-2.57,9.86
-2.51,-9.59,0.33,9.92,-9.56,0.29,-2.62,9.92
-2.42,-9.57,0.31,9.88,-9.49,0.27,-2.43,9.80
-2.37,-9.36,0.05,9.65,-9.47,0.29,-2.53,9.81
-2.29,-9.52,-0.02,9.80,-9.60,0.25,-2.59,9.94
-2.35,-9.60,-0.01,9.88,-9.51,0.28,-2.34,9.79
-2.35,-9.56,0.16,9.85,-9.60,0.28,-2.58,9.95
-2.46,-9.58,0.24,9.90,-9.54,0.29,-2.58,9.88
-2.44,-9.49,0.23,9.80,-9.49,0.26,-2.54,9.83
-2.42,-9.43,0.14,9.74,-9.51,0.25,-2.46,9.83
-2.39,-9.44,0.05,9.73,-9.51,0.27,-2.56,9.85
-2.43,-9.50,0.06,9.80,-9.54,0.33,-2.57,9.89
-2.45,-9.53,0.05,9.84,-9.53,0.32,-2.55,9.87
-2.41,-9.52,0.09,9.82,-9.58,0.31,-2.50,9.91
-2.34,-9.55,0.10,9.83,-9.56,0.27,-2.53,9.89
-2.37,-9.53,0.11,9.82,-9.53,0.29,-2.51,9.86
-2.38,-9.51,0.11,9.80,-9.53,0.31,-2.54,9.87
-2.41,-9.50,0.12,9.80,-9.52,0.31,-2.52,9.85
-2.40,-9.49,0.10,9.79,-9.51,0.33,-2.51,9.84
-2.42,-9.50,0.09,9.80,-9.50,0.29,-2.50,9.83
-2.42,-9.53,0.09,9.84,-9.52,0.32,-2.48,9.84
-2.36,-9.48,0.10,9.77,-9.52,0.29,-2.47,9.84
-2.36,-9.49,0.07,9.78,-9.52,0.28,-2.50,9.85
-2.35,-9.49,0.06,9.78,-9.54,0.27,-2.51,9.87
-2.37,-9.48,0.02,9.77,-9.52,0.28,-2.51,9.85
-2.36,-9.54,0.07,9.82,-9.54,0.31,-2.52,9.87
-2.43,-9.52,0.06,9.82,-9.58,0.29,-2.50,9.90
-2.42,-9.52,0.11,9.82,-9.56,0.31,-2.51,9.89
-2.42,-9.55,0.04,9.85,-9.56,0.31,-2.47,9.88
-2.36,-9.56,0.02,9.84,-9.58,0.32,-2.50,9.91
-2.42,-9.53,0.02,9.83,-9.55,0.33,-2.47,9.87
-2.43,-9.58,0.13,9.88,-9.56,0.31,-2.60,9.91
-2.37,-9.55,0.14,9.84,-9.56,0.29,-2.49,9.88
-2.38,-9.49,0.09,9.78,-9.53,0.27,-2.51,9.86
-2.43,-9.52,0.05,9.82,-9.54,0.27,-2.50,9.86
-2.44,-9.46,0.10,9.77,-9.51,0.31,-2.56,9.85
-2.44,-9.48,0.06,9.79,-9.56,0.33,-2.53,9.90
-2.41,-9.49,0.04,9.79,-9.52,0.30,-2.50,9.84
-2.39,-9.46,0.05,9.76,-9.52,0.28,-2.47,9.84
-2.37,-9.47,0.07,9.76,-9.55,0.29,-2.48,9.87
-2.38,-9.52,0.06,9.82,-9.55,0.28,-2.53,9.88
-2.37,-9.54,0.08,9.83,-9.54,0.29,-2.56,9.88
-2.37,-9.54,0.06,9.83,-9.55,0.28,-2.53,9.88
-2.39,-9.51,0.11,9.81,-9.57,0.29,-2.50,9.90
-2.39,-9.51,0.08,9.81,-9.54,0.29,-2.54,9.88
-2.38,-9.53,0.11,9.83,-9.54,0.28,-2.51,9.87
-2.35,-9.50,0.09,9.79,-9.52,0.28,-2.51,9.85
-2.37,-9.50,0.08,9.79,-9.56,0.29,-2.49,9.88
-2.37,-9.51,0.10,9.80,-9.52,0.25,-2.48,9.84
-2.40,-9.50,0.12,9.80,-9.56,0.29,-2.52,9.89
-2.38,-9.54,0.10,9.83,-9.54,0.29,-2.53,9.88
-2.38,-9.54,0.11,9.83,-9.53,0.28,-2.50,9.85
-2.39,-9.53,0.09,9.83,-9.55,0.31,-2.51,9.88
-2.37,-9.52,0.08,9.81,-9.55,0.27,-2.47,9.87
-2.38,-9.52,0.09,9.81,-9.53,0.27,-2.53,9.86
-2.38,-9.50,0.07,9.79,-9.50,0.28,-2.51,9.83
-2.37,-9.51,0.08,9.80,-9.53,0.28,-2.50,9.85
-2.36,-9.53,0.08,9.82,-9.52,0.27,-2.50,9.85
-2.38,-9.53,0.07,9.82,-9.51,0.26,-2.54,9.85
-2.38,-9.52,0.11,9.81,-9.54,0.28,-2.52,9.87
-2.39,-9.53,0.07,9.83,-9.55,0.27,-2.52,9.88
-2.38,-9.51,0.06,9.80,-9.50,0.27,-2.53,9.83
-2.39,-9.49,0.05,9.78,-9.52,0.29,-2.51,9.85
-2.36,-9.51,0.05,9.80,-9.55,0.28,-2.53,9.89
-2.38,-9.49,0.06,9.79,-9.55,0.30,-2.56,9.89
-2.39,-9.53,0.08,9.82,-9.52,0.29,-2.52,9.85
-2.41,-9.54,0.07,9.84,-9.57,0.30,-2.57,9.91
-2.39,-9.54,0.07,9.83,-9.53,0.31,-2.56,9.88
-2.38,-9.54,0.06,9.83,-9.53,0.30,-2.53,9.87
-2.41,-9.52,0.06,9.82,-9.54,0.32,-2.52,9.87
-2.38,-9.52,0.05,9.82,-9.55,0.30,-2.53,9.88
-2.38,-9.48,0.04,9.78,-9.51,0.31,-2.53,9.85
-2.40,-9.54,0.06,9.84,-9.53,0.31,-2.54,9.86
-2.40,-9.53,0.07,9.83,-9.50,0.29,-2.52,9.83
-2.40,-9.52,0.08,9.82,-9.53,0.31,-2.51,9.86
-2.39,-9.50,0.10,9.80,-9.50,0.31,-2.52,9.83
-2.41,-9.50,0.10,9.80,-9.49,0.28,-2.51,9.82
-2.40,-9.49,0.07,9.79,-9.48,0.28,-2.53,9.81
-2.39,-9.50,0.10,9.79,-9.53,0.27,-2.53,9.87
-2.37,-9.50,0.09,9.79,-9.51,0.29,-2.48,9.83
-2.33,-9.48,0.07,9.76,-9.52,0.30,-2.47,9.84
-2.40,-9.54,0.06,9.84,-9.52,0.30,-2.58,9.87
-2.49,-9.60,0.17,9.92,-9.57,0.34,-2.59,9.92
-2.41,-9.47,0.15,9.77,-9.51,0.31,-2.41,9.82
-2.32,-9.36,-0.04,9.64,-9.55,0.28,-2.64,9.92
-2.32,-9.57,-0.06,9.85,-9.52,0.27,-2.44,9.83
-2.37,-9.55,-0.08,9.84,-9.48,0.29,-2.43,9.79
-2.41,-9.55,0.08,9.85,-9.57,0.28,-2.67,9.94
-2.46,-9.55,0.17,9.87,-9.51,0.31,-2.54,9.85
-2.40,-9.46,0.18,9.76,-9.50,0.28,-2.52,9.83
-2.42,-9.42,0.09,9.72,-9.51,0.30,-2.48,9.83
-2.42,-9.45,-0.01,9.75,-9.49,0.27,-2.53,9.82
-2.43,-9.48,-0.01,9.79,-9.52,0.31,-2.55,9.86
-2.40,-9.53,0.03,9.83,-9.58,0.32,-2.52,9.91
-2.39,-9.56,0.07,9.86,-9.59,0.28,-2.52,9.92
-2.39,-9.57,0.04,9.86,-9.57,0.30,-2.50,9.90
-2.37,-9.53,0.06,9.82,-9.52,0.30,-2.48,9.85
-2.40,-9.54,0.10,9.83,-9.54,0.31,-2.52,9.88
-2.41,-9.53,0.11,9.83,-9.51,0.31,-2.50,9.83
-2.41,-9.52,0.11,9.82,-9.53,0.33,-2.53,9.87
-2.39,-9.50,0.07,9.79,-9.51,0.32,-2.49,9.84
-2.39,-9.47,0.03,9.77,-9.49,0.29,-2.47,9.81
-2.33,-9.48,0.10,9.77,-9.55,0.28,-2.49,9.87
-2.34,-9.48,0.04,9.77,-9.52,0.28,-2.39,9.82
-2.39,-9.53,0.13,9.82,-9.54,0.26,-2.58,9.88
-2.37,-9.53,0.10,9.82,-9.52,0.27,-2.51,9.85
-2.42,-9.53,0.05,9.83,-9.54,0.27,-2.52,9.87
-2.40,-9.52,0.03,9.82,-9.52,0.32,-2.48,9.85
-2.43,-9.75,0.10,10.05,-9.55,0.31,-2.53,9.89
-2.36,-9.47,-0.04,9.76,-9.54,0.31,-2.44,9.86
-2.37,-9.51,0.07,9.80,-9.51,0.34,-2.48,9.83
-2.41,-9.52,0.07,9.82,-9.57,0.36,-2.62,9.93
-2.40,-9.60,0.17,9.90,-9.56,0.30,-2.50,9.89
-2.37,-9.56,0.16,9.85,-9.57,0.30,-2.47,9.89
-2.42,-9.54,0.07,9.85,-9.56,0.24,-2.54,9.90
-2.42,-9.50,-0.03,9.80,-9.52,0.30,-2.42,9.83
-2.42,-9.47,0.01,9.77,-9.56,0.32,-2.52,9.89
-2.38,-9.49,-0.02,9.78,-9.54,0.32,-2.53,9.88
-2.34,-9.49,0.05,9.78,-9.56,0.30,-2.46,9.88
-2.36,-9.54,0.11,9.83,-9.57,0.29,-2.51,9.90
-2.38,-9.60,0.16,9.89,-9.56,0.29,-2.49,9.88
-2.38,-9.58,0.11,9.87,-9.56,0.33,-2.50,9.89
-2.41,-9.56,0.11,9.86,-9.53,0.30,-2.51,9.86
-2.40,-9.50,0.05,9.80,-9.56,0.28,-2.52,9.89
-2.38,-9.46,0.02,9.76,-9.54,0.31,-2.48,9.86
-2.37,-9.48,0.08,9.77,-9.52,0.29,-2.52,9.85
-2.35,-9.51,0.14,9.80,-9.53,0.28,-2.53,9.87
-2.37,-9.51,0.14,9.81,-9.52,0.30,-2.50,9.84
-2.38,-9.55,0.18,9.85,-9.53,0.25,-2.52,9.86
-2.41,-9.57,0.14,9.87,-9.54,0.27,-2.50,9.87
-2.45,-9.53,0.09,9.84,-9.54,0.27,-2.51,9.87
-2.40,-9.49,0.08,9.79,-9.52,0.30,-2.47,9.84
-2.38,-9.48,0.09,9.77,-9.52,0.30,-2.49,9.85
-2.36,-9.45,0.15,9.74,-9.51,0.27,-2.49,9.84
-2.38,-9.49,0.16,9.79,-9.52,0.28,-2.51,9.85
-2.40,-9.52,0.19,9.81,-9.54,0.29,-2.51,9.87
-2.38,-9.53,0.19,9.83,-9.51,0.29,-2.50,9.84
-2.41,-9.55,0.12,9.85,-9.52,0.29,-2.49,9.84
-2.40,-9.51,0.11,9.81,-9.53,0.27,-2.48,9.85
-2.36,-9.51,0.08,9.80,-9.55,0.28,-2.47,9.87
-2.34,-9.49,0.05,9.77,-9.53,0.27,-2.49,9.85
-2.36,-9.50,0.09,9.79,-9.53,0.25,-2.53,9.86
-2.36,-9.53,0.10,9.81,-9.52,0.30,-2.52,9.85
-2.39,-9.56,0.14,9.85,-9.52,0.25,-2.52,9.86
-2.37,-9.54,0.16,9.83,-9.55,0.27,-2.53,9.88
-2.39,-9.53,0.11,9.83,-9.55,0.28,-2.53,9.89
-2.40,-9.52,0.09,9.81,-9.53,0.28,-2.50,9.85
-2.38,-9.50,0.05,9.79,-9.52,0.28,-2.53,9.86
-2.37,-9.47,0.09,9.76,-9.52,0.29,-2.51,9.85
-2.39,-9.50,0.10,9.80,-9.50,0.27,-2.53,9.83
-2.39,-9.54,0.08,9.83,-9.55,0.30,-2.56,9.89
-2.41,-9.54,0.10,9.84,-9.54,0.30,-2.55,9.88
-2.37,-9.54,0.08,9.83,-9.52,0.28,-2.54,9.86
-2.39,-9.53,0.10,9.82,-9.53,0.29,-2.53,9.86
-2.39,-9.51,0.07,9.80,-9.50,0.28,-2.54,9.84
-2.38,-9.47,0.08,9.76,-9.51,0.28,-2.58,9.86
-2.37,-9.47,0.07,9.77,-9.51,0.27,-2.55,9.85
-2.32,-9.52,0.10,9.80,-9.50,0.25,-2.52,9.83
-2.36,-9.52,0.12,9.81,-9.50,0.26,-2.53,9.83
-2.36,-9.54,0.10,9.83,-9.51,0.26,-2.51,9.84
-2.41,-9.52,0.09,9.83,-9.51,0.25,-2.53,9.84
-2.39,-9.54,0.08,9.83,-9.52,0.28,-2.54,9.86
-2.36,-9.52,0.02,9.81,-9.52,0.30,-2.51,9.85
-2.38,-9.53,0.03,9.82,-9.55,0.30,-2.54,9.88
-2.38,-9.50,0.07,9.79,-9.55,0.28,-2.54,9.88
-2.32,-9.49,0.06,9.77,-9.55,0.31,-2.51,9.88
-2.38,-9.56,0.07,9.86,-9.53,0.32,-2.58,9.88
-2.45,-9.60,0.15,9.91,-9.55,0.32,-2.58,9.90
-2.44,-9.54,0.21,9.85,-9.53,0.29,-2.47,9.85
-2.36,-9.36,-0.02,9.65,-9.52,0.31,-2.64,9.88
-2.33,-9.52,-0.08,9.80,-9.53,0.26,-2.61,9.88
-2.41,-9.55,-0.01,9.85,-9.50,0.29,-2.40,9.80
-2.39,-9.54,0.00,9.84,-9.54,0.29,-2.68,9.91
-2.46,-9.56,0.17,9.87,-9.52,0.31,-2.60,9.87
-2.42,-9.45,0.18,9.76,-9.51,0.31,-2.57,9.86
-2.39,-9.41,0.10,9.71,-9.48,0.28,-2.53,9.82
-2.40,-9.44,-0.00,9.74,-9.46,0.29,-2.56,9.80
-2.40,-9.49,-0.03,9.79,-9.51,0.34,-2.56,9.85
-2.39,-9.50,0.01,9.79,-9.54,0.33,-2.53,9.88
-2.34,-9.54,0.03,9.82,-9.59,0.30,-2.51,9.92
-2.36,-9.58,0.08,9.87,-9.60,0.29,-2.49,9.92
-2.37,-9.59,0.08,9.88,-9.58,0.29,-2.51,9.91
-2.39,-9.58,0.09,9.87,-9.55,0.31,-2.49,9.87
-2.40,-9.55,0.07,9.85,-9.57,0.30,-2.51,9.90
-2.40,-9.55,0.05,9.84,-9.54,0.31,-2.46,9.86
-2.42,-9.52,0.05,9.83,-9.53,0.30,-2.44,9.84
-2.39,-9.52,0.07,9.82,-9.57,0.31,-2.45,9.88
-2.36,-9.52,0.07,9.81,-9.53,0.29,-2.48,9.85
-2.36,-9.53,0.13,9.82,-9.54,0.26,-2.46,9.85
-2.37,-9.53,0.14,9.82,-9.54,0.28,-2.51,9.87
-2.37,-9.56,0.12,9.85,-9.58,0.31,-2.52,9.91
-2.40,-9.53,0.11,9.83,-9.56,0.29,-2.55,9.89
-2.39,-9.54,0.14,9.84,-9.53,0.31,-2.54,9.87
-2.43,-9.51,0.11,9.82,-9.54,0.31,-2.53,9.87
-2.36,-9.51,0.10,9.80,-9.54,0.32,-2.50,9.87
-2.40,-9.50,0.14,9.80,-9.49,0.33,-2.50,9.82
-2.43,-9.52,0.14,9.82,-9.53,0.32,-2.62,9.88
-2.43,-9.55,0.12,9.85,-9.51,0.34,-2.51,9.84
-2.38,-9.54,0.19,9.84,-9.59,0.27,-2.57,9.93
-2.37,-9.52,0.15,9.81,-9.52,0.26,-2.55,9.86
-2.38,-9.51,0.09,9.81,-9.50,0.29,-2.59,9.85
-2.40,-9.48,0.07,9.78,-9.49,0.28,-2.58,9.83
-2.40,-9.51,0.12,9.81,-9.54,0.30,-2.58,9.89
-2.38,-9.54,0.14,9.83,-9.53,0.30,-2.56,9.87
-2.37,-9.52,0.11,9.81,-9.51,0.26,-2.57,9.85
-2.35,-9.53,0.15,9.82,-9.53,0.27,-2.56,9.87
-2.35,-9.57,0.15,9.85,-9.53,0.22,-2.59,9.88
-2.34,-9.57,0.14,9.85,-9.53,0.27,-2.54,9.87
-2.36,-9.56,0.16,9.85,-9.51,0.25,-2.56,9.85
-2.34,-9.50,0.20,9.79,-9.50,0.25,-2.52,9.83
-2.36,-9.57,0.28,9.86,-9.53,0.25,-2.54,9.86
-2.32,-9.50,0.18,9.78,-9.51,0.27,-2.52,9.84
-2.36,-9.53,0.14,9.82,-9.54,0.27,-2.56,9.88
-2.40,-9.59,0.15,9.89,-9.53,0.25,-2.52,9.86
-2.39,-9.52,0.17,9.82,-9.52,0.30,-2.59,9.87
-2.40,-9.52,0.17,9.82,-9.55,0.28,-2.59,9.90
-2.44,-9.52,0.21,9.83,-9.56,0.31,-2.59,9.91
-2.43,-9.52,0.26,9.83,-9.57,0.29,-2.63,9.93
-2.42,-9.54,0.31,9.84,-9.54,0.29,-2.61,9.90
-2.39,-9.51,0.22,9.81,-9.54,0.28,-2.67,9.91
-2.38,-9.49,0.23,9.78,-9.48,0.29,-2.56,9.83
-2.37,-9.54,0.19,9.84,-9.52,0.27,-2.66,9.89
-2.36,-9.52,0.24,9.81,-9.47,0.26,-2.57,9.82
-2.38,-9.52,0.24,9.81,-9.51,0.24,-2.64,9.87
-2.40,-9.50,0.24,9.80,-9.51,0.28,-2.61,9.87
-2.36,-9.49,0.26,9.78,-9.46,0.23,-2.62,9.82
-2.38,-9.48,0.22,9.78,-9.47,0.25,-2.60,9.82
-2.38,-9.52,0.28,9.81,-9.50,0.25,-2.57,9.84
-2.37,-9.49,0.24,9.78,-9.51,0.23,-2.63,9.87
-2.34,-9.46,0.23,9.75,-9.47,0.23,-2.66,9.84
-2.35,-9.54,0.31,9.83,-9.46,0.23,-2.61,9.81
-2.36,-9.49,0.30,9.78,-9.47,0.27,-2.61,9.83
-2.36,-9.48,0.30,9.78,-9.48,0.26,-2.65,9.85
-2.37,-9.51,0.38,9.81,-9.49,0.25,-2.63,9.85
-2.39,-9.53,0.32,9.83,-9.49,0.26,-2.63,9.85
-2.39,-9.53,0.24,9.82,-9.51,0.26,-2.65,9.87
-2.40,-9.54,0.27,9.84,-9.50,0.26,-2.64,9.86
-2.37,-9.48,0.21,9.78,-9.53,0.29,-2.66,9.90
-2.41,-9.59,0.29,9.89,-9.53,0.25,-2.62,9.89
-2.38,-9.54,0.23,9.84,-9.53,0.26,-2.65,9.90
-2.41,-9.59,0.33,9.90,-9.52,0.26,-2.67,9.89
-2.37,-9.55,0.29,9.84,-9.48,0.26,-2.63,9.84
-2.34,-9.50,0.31,9.79,-9.48,0.25,-2.67,9.85
-2.39,-9.51,0.35,9.82,-9.47,0.24,-2.67,9.84
-2.40,-9.51,0.41,9.82,-9.48,0.24,-2.65,9.85
-2.35,-9.48,0.18,9.77,-9.47,0.22,-2.67,9.84
-2.37,-9.53,0.31,9.82,-9.45,0.22,-2.64,9.82
-2.32,-9.51,0.13,9.79,-9.47,0.24,-2.66,9.84
-2.32,-9.43,0.22,9.71,-9.47,0.25,-2.65,9.84
-2.34,-9.54,0.33,9.83,-9.47,0.23,-2.65,9.84
-2.42,-9.54,0.30,9.84,-9.46,0.26,-2.70,9.84
-2.35,-9.53,0.31,9.82,-9.45,0.24,-2.64,9.81
-2.37,-9.46,0.19,9.76,-9.45,0.26,-2.63,9.81
-2.29,-9.43,0.28,9.71,-9.48,0.25,-2.73,9.87
-2.35,-9.50,0.14,9.79,-9.47,0.27,-2.64,9.83
-2.29,-9.55,0.32,9.83,-9.53,0.25,-2.74,9.92
-2.40,-9.57,0.42,9.88,-9.44,0.22,-2.75,9.83
-2.46,-9.55,0.43,9.87,-9.47,0.24,-2.69,9.85
-2.45,-9.47,0.33,9.79,-9.49,0.29,-2.64,9.85
-2.44,-9.46,0.31,9.78,-9.48,0.30,-2.61,9.84
-2.43,-9.55,0.30,9.86,-9.57,0.29,-2.62,9.93
-2.42,-9.56,0.29,9.86,-9.56,0.29,-2.62,9.92
-2.44,-9.79,0.60,10.11,-9.55,0.25,-2.67,9.92
-2.35,-9.53,0.21,9.81,-9.57,0.24,-2.66,9.94
-2.34,-9.55,0.21,9.84,-9.53,0.21,-2.66,9.89
-2.36,-9.49,0.40,9.78,-9.50,0.25,-2.65,9.86
-2.36,-9.47,0.25,9.76,-9.44,0.27,-2.66,9.82
-2.36,-9.47,0.38,9.77,-9.44,0.27,-2.68,9.82
-2.35,-9.48,0.35,9.77,-9.43,0.26,-2.62,9.79
-2.34,-9.46,0.25,9.75,-9.44,0.25,-2.65,9.81
-2.32,-9.48,0.39,9.77,-9.47,0.23,-2.64,9.84
-2.37,-9.54,0.51,9.85,-9.49,0.24,-2.66,9.86
-2.30,-9.51,0.31,9.79,-9.50,0.22,-2.62,9.86
-2.34,-9.52,0.39,9.81,-9.50,0.23,-2.66,9.87
-2.36,-9.53,0.37,9.82,-9.49,0.22,-2.68,9.87
-2.41,-9.55,0.37,9.85,-9.50,0.26,-2.69,9.88
-2.40,-9.52,0.33,9.83,-9.49,0.27,-2.69,9.87
-2.30,-9.54,0.31,9.82,-9.51,0.25,-2.59,9.86
-2.37,-9.54,0.23,9.84,-9.52,0.26,-2.68,9.90
-2.40,-9.57,0.22,9.86,-9.51,0.26,-2.73,9.89
-2.35,-9.55,0.26,9.84,-9.55,0.26,-2.60,9.90
-2.39,-9.54,0.39,9.84,-9.53,0.23,-2.64,9.90
-2.38,-9.55,0.42,9.85,-9.49,0.26,-2.67,9.87
-2.39,-9.60,0.39,9.90,-9.51,0.27,-2.71,9.89
-2.35,-9.44,0.23,9.73,-9.46,0.23,-2.73,9.85
-2.34,-9.49,0.26,9.77,-9.46,0.24,-2.68,9.84
-2.40,-9.56,0.30,9.87,-9.50,0.25,-2.72,9.88
-2.33,-9.49,0.05,9.77,-9.47,0.22,-2.71,9.85
-2.33,-9.47,0.28,9.76,-9.49,0.22,-2.74,9.88
-2.37,-9.51,0.43,9.81,-9.46,0.22,-2.74,9.85
-2.34,-9.52,0.32,9.81,-9.44,0.23,-2.75,9.83
-2.37,-9.53,0.32,9.82,-9.47,0.23,-2.72,9.86
-2.34,-9.50,0.27,9.78,-9.44,0.22,-2.73,9.83
-2.35,-9.51,0.33,9.81,-9.46,0.20,-2.72,9.84
-2.32,-9.51,0.24,9.79,-9.46,0.20,-2.73,9.85
-2.34,-9.51,0.29,9.80,-9.49,0.19,-2.72,9.88
-2.34,-9.52,0.31,9.81,-9.50,0.18,-2.71,9.88
-2.34,-9.53,0.38,9.82,-9.49,0.22,-2.68,9.87
-2.38,-9.50,0.20,9.79,-9.49,0.19,-2.70,9.87
-2.34,-9.54,0.34,9.83,-9.48,0.20,-2.71,9.86
-2.33,-9.49,0.18,9.78,-9.51,0.21,-2.69,9.89
-2.35,-9.51,0.31,9.80,-9.46,0.22,-2.71,9.84
-2.36,-9.54,0.34,9.84,-9.46,0.23,-2.68,9.83
-2.35,-9.53,0.32,9.82,-9.46,0.21,-2.69,9.83
-2.33,-9.52,0.31,9.80,-9.48,0.23,-2.70,9.86
-2.33,-9.50,0.32,9.78,-9.45,0.22,-2.70,9.83
-2.33,-9.49,0.31,9.77,-9.47,0.19,-2.70,9.85
-2.34,-9.51,0.30,9.80,-9.48,0.20,-2.73,9.87
-2.36,-9.54,0.33,9.84,-9.44,0.23,-2.69,9.82
-2.33,-9.54,0.31,9.83,-9.50,0.20,-2.73,9.89
-2.35,-9.55,0.33,9.84,-9.48,0.22,-2.71,9.86
-2.36,-9.51,0.33,9.81,-9.49,0.19,-2.70,9.87
-2.37,-9.53,0.30,9.83,-9.47,0.21,-2.71,9.86
-2.36,-9.52,0.29,9.81,-9.50,0.20,-2.74,9.89
-2.36,-9.54,0.33,9.83,-9.47,0.21,-2.71,9.85
-2.35,-9.55,0.35,9.84,-9.48,0.22,-2.71,9.86
-2.37,-9.53,0.31,9.82,-9.46,0.21,-2.73,9.85
-2.34,-9.50,0.34,9.79,-9.48,0.23,-2.69,9.86
-2.37,-9.49,0.32,9.79,-9.47,0.22,-2.68,9.84
-2.38,-9.51,0.29,9.81,-9.48,0.21,-2.68,9.85
-2.39,-9.53,0.28,9.83,-9.47,0.22,-2.71,9.85
-2.33,-9.51,0.31,9.80,-9.48,0.22,-2.71,9.86
-2.35,-9.52,0.31,9.81,-9.48,0.22,-2.67,9.85
-2.34,-9.52,0.26,9.81,-9.49,0.21,-2.68,9.86
-2.40,-9.58,0.30,9.88,-9.49,0.22,-2.72,9.87
-2.45,-9.56,0.32,9.88,-9.46,0.26,-2.74,9.86
-2.41,-9.52,0.42,9.83,-9.44,0.23,-2.61,9.80
-2.33,-9.47,0.32,9.75,-9.47,0.20,-2.65,9.83
-2.27,-9.44,0.09,9.71,-9.48,0.21,-2.73,9.86
-2.25,-9.57,0.12,9.83,-9.49,0.18,-2.72,9.87
-2.28,-9.54,0.20,9.81,-9.48,0.17,-2.72,9.87
-2.35,-9.51,0.34,9.80,-9.42,0.20,-2.79,9.83
-2.45,-9.49,0.38,9.81,-9.43,0.24,-2.70,9.81
-2.42,-9.43,0.34,9.74,-9.47,0.30,-2.65,9.84
-2.42,-9.47,0.24,9.77,-9.49,0.26,-2.65,9.86
-2.38,-9.57,0.32,9.87,-9.55,0.28,-2.68,9.92
-2.41,-9.60,0.25,9.90,-9.56,0.24,-2.66,9.92
-2.34,-9.57,0.23,9.85,-9.53,0.23,-2.68,9.91
-2.31,-9.56,0.22,9.84,-9.55,0.20,-2.71,9.93
-2.35,-9.56,0.24,9.85,-9.47,0.20,-2.70,9.85
-2.35,-9.55,0.30,9.84,-9.50,0.24,-2.70,9.88
-2.38,-9.51,0.30,9.81,-9.47,0.24,-2.70,9.85
-2.36,-9.48,0.29,9.77,-9.48,0.24,-2.70,9.86
-2.35,-9.48,0.28,9.77,-9.44,0.24,-2.65,9.81
-2.35,-9.49,0.28,9.78,-9.44,0.25,-2.65,9.81
-2.35,-9.50,0.22,9.79,-9.48,0.24,-2.67,9.86
-2.32,-9.46,0.22,9.75,-9.49,0.22,-2.65,9.85
-2.34,-9.52,0.31,9.81,-9.50,0.22,-2.67,9.87
-2.33,-9.52,0.25,9.80,-9.51,0.20,-2.69,9.88
-2.36,-9.55,0.27,9.84,-9.50,0.18,-2.69,9.88
-2.37,-9.56,0.27,9.85,-9.51,0.21,-2.70,9.89
-2.39,-9.52,0.23,9.81,-9.50,0.22,-2.69,9.87
-2.33,-9.56,0.30,9.85,-9.53,0.22,-2.66,9.90
-2.37,-9.49,0.15,9.79,-9.55,0.24,-2.66,9.91
-2.38,-9.54,0.29,9.84,-9.49,0.21,-2.77,9.88
-2.36,-9.55,0.31,9.84,-9.52,0.20,-2.60,9.87
-2.35,-9.52,0.26,9.81,-9.50,0.19,-2.66,9.87
-2.37,-9.50,0.24,9.80,-9.49,0.24,-2.69,9.86
-2.39,-9.52,0.33,9.83,-9.49,0.25,-2.69,9.87
-2.37,-9.49,0.28,9.79,-9.51,0.22,-2.65,9.88
-2.35,-9.52,0.24,9.81,-9.53,0.23,-2.63,9.89
-2.37,-9.56,0.21,9.85,-9.52,0.23,-2.64,9.88
-2.36,-9.54,0.24,9.83,-9.48,0.20,-2.68,9.86
-2.34,-9.52,0.24,9.80,-9.50,0.22,-2.68,9.87
-2.34,-9.55,0.18,9.83,-9.48,0.21,-2.70,9.86
-2.36,-9.54,0.28,9.83,-9.49,0.21,-2.68,9.86
-2.33,-9.53,0.25,9.81,-9.46,0.19,-2.67,9.83
-2.33,-9.48,0.19,9.77,-9.47,0.20,-2.67,9.85
-2.32,-9.48,0.17,9.76,-9.47,0.20,-2.67,9.85
-2.37,-9.56,0.28,9.86,-9.51,0.20,-2.68,9.88
-2.35,-9.54,0.23,9.83,-9.48,0.20,-2.66,9.85
-2.33,-9.52,0.19,9.80,-9.53,0.22,-2.63,9.89
-2.38,-9.56,0.34,9.86,-9.52,0.21,-2.66,9.88
-2.38,-9.56,0.21,9.86,-9.51,0.21,-2.67,9.88
-2.39,-9.54,0.22,9.83,-9.54,0.20,-2.67,9.91
-2.36,-9.54,0.28,9.84,-9.52,0.20,-2.68,9.89
-2.38,-9.54,0.22,9.84,-9.49,0.24,-2.67,9.86
-2.37,-9.51,0.25,9.80,-9.50,0.23,-2.66,9.87
-2.34,-9.53,0.26,9.81,-9.48,0.21,-2.66,9.85
-2.33,-9.52,0.29,9.80,-9.47,0.22,-2.67,9.84
-2.34,-9.51,0.24,9.80,-9.48,0.21,-2.66,9.85
-2.29,-9.46,0.12,9.74,-9.45,0.19,-2.65,9.81
-2.35,-9.52,0.29,9.81,-9.46,0.22,-2.68,9.84
-2.35,-9.51,0.25,9.80,-9.49,0.20,-2.69,9.87
-2.34,-9.47,0.16,9.76,-9.49,0.20,-2.65,9.86
-2.38,-9.52,0.20,9.82,-9.48,0.22,-2.62,9.84
-2.36,-9.52,0.27,9.82,-9.52,0.21,-2.66,9.89
-2.38,-9.55,0.19,9.84,-9.50,0.22,-2.66,9.87
-2.38,-9.51,0.17,9.80,-9.50,0.22,-2.64,9.87
-2.38,-9.55,0.21,9.85,-9.51,0.22,-2.64,9.87
-2.36,-9.49,0.18,9.79,-9.50,0.22,-2.66,9.87
-2.37,-9.54,0.30,9.83,-9.49,0.23,-2.67,9.87
-2.40,-9.52,0.22,9.82,-9.46,0.17,-2.65,9.82
-2.34,-9.52,0.19,9.81,-9.49,0.18,-2.64,9.85
-2.34,-9.51,0.28,9.80,-9.49,0.20,-2.65,9.85
-2.35,-9.53,0.21,9.82,-9.51,0.23,-2.63,9.87
-2.32,-9.50,0.18,9.78,-9.50,0.19,-2.60,9.85
-2.32,-9.54,0.29,9.82,-9.51,0.22,-2.60,9.86
-2.39,-9.58,0.29,9.88,-9.56,0.28,-2.68,9.93
-2.44,-9.59,0.38,9.90,-9.56,0.29,-2.67,9.93
-2.43,-9.51,0.32,9.82,-9.49,0.26,-2.56,9.83
-2.32,-9.39,0.12,9.68,-9.49,0.28,-2.58,9.84
-2.29,-9.51,0.06,9.79,-9.52,0.29,-2.67,9.89
-2.38,-9.58,0.15,9.87,-9.49,0.34,-2.53,9.82
-2.42,-9.56,0.21,9.87,-9.50,0.32,-2.74,9.89
-2.50,-9.52,0.30,9.85,-9.44,0.31,-2.71,9.83
-2.45,-9.47,0.29,9.79,-9.45,0.29,-2.65,9.82
-2.42,-9.41,0.21,9.72,-9.46,0.26,-2.57,9.81
-2.40,-9.41,0.13,9.71,-9.47,0.26,-2.66,9.85
-2.44,-9.54,0.41,9.86,-9.49,0.28,-2.65,9.85
-2.42,-9.54,0.21,9.85,-9.53,0.27,-2.63,9.89
-2.35,-9.55,0.17,9.83,-9.56,0.23,-2.61,9.91
-2.36,-9.55,0.17,9.84,-9.56,0.20,-2.63,9.91
-2.37,-9.59,0.16,9.88,-9.55,0.20,-2.58,9.89
-2.39,-9.55,0.20,9.85,-9.53,0.21,-2.58,9.88
-2.38,-9.56,0.21,9.85,-9.50,0.21,-2.57,9.85
-2.36,-9.51,0.22,9.80,-9.49,0.23,-2.56,9.83
-2.35,-9.51,0.25,9.80,-9.50,0.23,-2.55,9.84
-2.35,-9.50,0.20,9.79,-9.52,0.24,-2.55,9.85
-2.36,-9.51,0.15,9.80,-9.54,0.25,-2.53,9.87
-2.35,-9.53,0.19,9.82,-9.52,0.25,-2.54,9.86
-2.35,-9.52,0.14,9.80,-9.53,0.23,-2.55,9.86
-2.38,-9.56,0.30,9.86,-9.53,0.23,-2.56,9.87
-2.42,-9.54,0.17,9.85,-9.54,0.26,-2.60,9.89
-2.39,-9.54,0.17,9.83,-9.54,0.27,-2.59,9.89
-2.42,-9.53,0.17,9.83,-9.53,0.28,-2.60,9.88
-2.41,-9.55,0.16,9.85,-9.54,0.26,-2.58,9.88
-2.35,-9.52,0.18,9.81,-9.56,0.25,-2.56,9.90
-2.38,-9.50,0.16,9.79,-9.49,0.28,-2.55,9.83
-2.39,-9.55,0.22,9.85,-9.52,0.27,-2.70,9.90
-2.37,-9.56,0.25,9.86,-9.53,0.27,-2.56,9.87
-2.33,-9.53,0.31,9.81,-9.55,0.22,-2.55,9.89
-2.32,-9.51,0.24,9.79,-9.49,0.23,-2.54,9.83
-2.36,-9.47,0.17,9.76,-9.48,0.25,-2.57,9.82
-2.40,-9.51,0.18,9.81,-9.48,0.26,-2.58,9.83
-2.37,-9.48,0.15,9.78,-9.48,0.28,-2.57,9.82
-2.35,-9.48,0.19,9.77,-9.51,0.26,-2.52,9.84
-2.31,-9.50,0.17,9.78,-9.47,0.24,-2.47,9.79
-2.35,-9.54,0.26,9.83,-9.56,0.22,-2.60,9.91
-2.32,-9.56,0.15,9.84,-9.56,0.24,-2.50,9.89
-2.38,-9.63,0.20,9.92,-9.55,0.26,-2.58,9.89
-2.38,-9.53,0.12,9.82,-9.54,0.27,-2.52,9.87
-2.36,-9.54,0.21,9.83,-9.56,0.24,-2.56,9.90
-2.34,-9.53,0.11,9.81,-9.53,0.24,-2.56,9.87
-2.36,-9.51,0.15,9.80,-9.51,0.23,-2.52,9.84
-2.35,-9.52,0.12,9.81,-9.54,0.25,-2.55,9.87
-2.37,-9.52,0.14,9.81,-9.54,0.24,-2.52,9.87
-2.38,-9.51,0.14,9.80,-9.53,0.25,-2.51,9.86
-2.37,-9.54,0.17,9.83,-9.53,0.24,-2.55,9.87
-2.37,-9.54,0.18,9.83,-9.53,0.25,-2.60,9.88
-2.40,-9.54,0.17,9.84,-9.52,0.27,-2.56,9.86
-2.37,-9.52,0.08,9.81,-9.53,0.24,-2.54,9.86
-2.35,-9.50,0.13,9.79,-9.52,0.24,-2.59,9.86
-2.35,-9.53,0.12,9.81,-9.51,0.24,-2.60,9.86
-2.34,-9.52,0.15,9.80,-9.50,0.24,-2.60,9.85
-2.35,-9.55,0.21,9.83,-9.50,0.23,-2.57,9.85
-2.33,-9.50,0.08,9.78,-9.50,0.21,-2.57,9.84
-2.35,-9.52,0.16,9.81,-9.50,0.22,-2.56,9.84
-2.33,-9.48,0.08,9.76,-9.51,0.24,-2.55,9.85
-2.37,-9.55,0.16,9.84,-9.53,0.25,-2.55,9.87
-2.38,-9.54,0.11,9.84,-9.52,0.25,-2.55,9.86
-2.38,-9.54,0.11,9.83,-9.54,0.23,-2.54,9.87
-2.38,-9.54,0.12,9.83,-9.55,0.26,-2.55,9.88
-2.34,-9.56,0.18,9.85,-9.56,0.26,-2.51,9.88
-2.40,-9.54,0.13,9.84,-9.57,0.25,-2.53,9.90
-2.39,-9.55,0.13,9.84,-9.55,0.25,-2.56,9.89
-2.39,-9.54,0.13,9.84,-9.55,0.27,-2.51,9.88
-2.37,-9.52,0.13,9.81,-9.51,0.24,-2.53,9.85
-2.40,-9.51,0.14,9.81,-9.52,0.26,-2.54,9.85
-2.37,-9.53,0.14,9.82,-9.53,0.26,-2.55,9.87
-2.37,-9.54,0.16,9.83,-9.49,0.27,-2.55,9.83
-2.35,-9.50,0.13,9.79,-9.51,0.24,-2.53,9.85
-2.35,-9.51,0.14,9.79,-9.49,0.25,-2.52,9.82
-2.36,-9.51,0.12,9.79,-9.50,0.27,-2.53,9.84
-2.40,-9.55,0.14,9.85,-9.52,0.26,-2.55,9.86
-2.36,-9.46,0.14,9.75,-9.51,0.24,-2.52,9.84
-2.37,-9.50,0.14,9.79,-9.53,0.26,-2.50,9.85
-2.38,-9.51,0.15,9.81,-9.52,0.25,-2.57,9.86
-2.36,-9.51,0.08,9.80,-9.52,0.26,-2.53,9.85
-2.36,-9.52,0.15,9.81,-9.54,0.27,-2.50,9.87
-2.32,-9.52,0.11,9.80,-9.54,0.28,-2.52,9.87
-2.46,-9.61,0.22,9.92,-9.57,0.28,-2.59,9.91
-2.43,-9.59,0.31,9.90,-9.56,0.25,-2.57,9.90
-2.37,-9.47,0.19,9.76,-9.50,0.23,-2.38,9.80
-2.31,-9.38,0.09,9.66,-9.54,0.25,-2.65,9.91
-2.27,-9.57,0.06,9.83,-9.50,0.25,-2.38,9.79
-2.27,-9.56,0.03,9.83,-9.52,0.27,-2.45,9.83
-2.38,-9.60,0.15,9.89,-9.55,0.26,-2.65,9.91
-2.44,-9.58,0.27,9.89,-9.51,0.25,-2.56,9.85
-2.41,-9.49,0.19,9.79,-9.52,0.23,-2.46,9.84
-2.37,-9.46,0.08,9.76,-9.49,0.26,-2.51,9.82
-2.39,-9.45,0.00,9.75,-9.50,0.29,-2.58,9.85
-2.44,-9.49,0.05,9.80,-9.49,0.31,-2.57,9.84
-2.42,-9.54,0.09,9.84,-9.55,0.31,-2.53,9.88
-2.38,-9.56,0.04,9.85,-9.60,0.27,-2.53,9.93
-2.34,-9.53,0.12,9.81,-9.57,0.26,-2.52,9.90
-2.36,-9.57,0.10,9.86,-9.56,0.24,-2.53,9.90
-2.36,-9.56,0.11,9.84,-9.53,0.25,-2.53,9.86
-2.36,-9.50,0.10,9.79,-9.52,0.28,-2.52,9.85
-2.38,-9.49,0.12,9.79,-9.52,0.27,-2.51,9.85
-2.37,-9.50,0.09,9.80,-9.52,0.28,-2.53,9.85
-2.38,-9.49,0.12,9.79,-9.50,0.24,-2.49,9.82
-2.37,-9.52,0.10,9.81,-9.53,0.26,-2.49,9.85
-2.33,-9.54,0.08,9.82,-9.54,0.25,-2.51,9.87
-2.38,-9.54,0.10,9.83,-9.52,0.25,-2.54,9.85
-2.37,-9.50,0.12,9.79,-9.52,0.25,-2.50,9.84
-2.36,-9.52,0.10,9.80,-9.50,0.26,-2.52,9.83
-2.40,-9.52,0.08,9.82,-9.53,0.27,-2.52,9.86
-2.40,-9.55,0.10,9.85,-9.53,0.28,-2.52,9.87
-2.38,-9.53,0.11,9.82,-9.55,0.27,-2.51,9.88
-2.35,-9.52,0.08,9.80,-9.54,0.27,-2.52,9.88
-2.40,-9.52,0.09,9.82,-9.53,0.27,-2.47,9.85
-2.39,-9.54,0.15,9.84,-9.59,0.29,-2.58,9.94
-2.39,-9.54,0.18,9.84,-9.55,0.25,-2.49,9.87
-2.37,-9.52,0.10,9.81,-9.57,0.26,-2.47,9.89
-2.38,-9.51,0.07,9.80,-9.52,0.27,-2.48,9.84
-2.38,-9.52,0.10,9.81,-9.53,0.28,-2.53,9.87
-2.38,-9.53,0.10,9.82,-9.55,0.30,-2.54,9.88
-2.36,-9.53,0.06,9.82,-9.50,0.33,-2.53,9.83
-2.33,-9.49,0.09,9.77,-9.53,0.28,-2.49,9.85
-2.34,-9.52,0.06,9.80,-9.54,0.25,-2.52,9.87
-2.34,-9.53,0.07,9.82,-9.57,0.27,-2.49,9.89
-2.36,-9.54,0.07,9.83,-9.53,0.29,-2.52,9.86
-2.36,-9.51,0.10,9.80,-9.52,0.30,-2.53,9.85
-2.36,-9.53,0.11,9.82,-9.53,0.28,-2.51,9.86
-2.37,-9.53,0.12,9.82,-9.52,0.31,-2.52,9.85
-2.38,-9.52,0.13,9.81,-9.52,0.27,-2.54,9.85
-2.37,-9.48,0.14,9.77,-9.51,0.28,-2.55,9.85
-2.36,-9.49,0.08,9.78,-9.50,0.29,-2.52,9.83
-2.38,-9.50,0.07,9.79,-9.51,0.26,-2.53,9.84
-2.35,-9.50,0.09,9.79,-9.51,0.25,-2.54,9.85
-2.38,-9.52,0.08,9.81,-9.53,0.25,-2.52,9.86
-2.41,-9.53,0.12,9.83,-9.53,0.29,-2.52,9.86
-2.40,-9.53,0.15,9.83,-9.54,0.29,-2.51,9.87
-2.39,-9.48,0.14,9.77,-9.52,0.28,-2.51,9.85
-2.36,-9.52,0.15,9.81,-9.52,0.28,-2.51,9.85
-2.35,-9.50,0.14,9.79,-9.52,0.27,-2.52,9.86
-2.33,-9.50,0.10,9.78,-9.51,0.27,-2.51,9.83
-2.33,-9.52,0.22,9.80,-9.50,0.27,-2.49,9.82
-2.33,-9.51,0.03,9.79,-9.54,0.28,-2.49,9.86
-2.34,-9.49,-0.04,9.77,-9.51,0.24,-2.51,9.84
-2.36,-9.53,0.01,9.82,-9.55,0.26,-2.49,9.87
-2.37,-9.56,0.05,9.85,-9.56,0.27,-2.52,9.89
-2.39,-9.53,0.07,9.83,-9.56,0.30,-2.52,9.89
-2.39,-9.52,0.09,9.82,-9.53,0.27,-2.53,9.87
-2.39,-9.52,0.09,9.81,-9.52,0.26,-2.50,9.85
-2.39,-9.54,0.10,9.84,-9.54,0.30,-2.51,9.87
-2.37,-9.54,0.12,9.84,-9.55,0.26,-2.50,9.87
-2.36,-9.54,0.12,9.83,-9.54,0.29,-2.51,9.87
-2.39,-9.51,0.10,9.80,-9.52,0.26,-2.52,9.85
-2.37,-9.51,0.10,9.80,-9.51,0.28,-2.54,9.85
-2.38,-9.51,0.09,9.80,-9.53,0.27,-2.52,9.87
-2.34,-9.48,-0.00,9.76,-9.53,0.26,-2.55,9.87
-2.36,-9.51,0.03,9.80,-9.54,0.27,-2.54,9.87
-2.35,-9.57,0.07,9.85,-9.53,0.24,-2.52,9.86
-2.32,-9.54,0.06,9.82,-9.51,0.23,-2.54,9.85
-2.36,-9.53,0.07,9.81,-9.50,0.22,-2.55,9.84
-2.37,-9.53,0.10,9.82,-9.52,0.23,-2.54,9.85
-2.39,-9.52,0.10,9.82,-9.50,0.28,-2.52,9.84
-2.39,-9.52,0.11,9.82,-9.54,0.28,-2.53,9.87
-2.39,-9.52,0.12,9.82,-9.52,0.29,-2.57,9.86
-2.36,-9.53,0.08,9.82,-9.54,0.26,-2.51,9.87
-2.36,-9.53,0.08,9.82,-9.54,0.27,-2.52,9.87
-2.37,-9.52,0.05,9.81,-9.56,0.28,-2.52,9.89
-2.37,-9.54,0.06,9.83,-9.55,0.26,-2.54,9.88
-2.36,-9.54,0.08,9.83,-9.51,0.26,-2.54,9.85
-2.36,-9.53,0.07,9.82,-9.52,0.27,-2.51,9.85
-2.36,-9.50,0.12,9.79,-9.52,0.25,-2.52,9.85
-2.38,-9.53,0.12,9.82,-9.51,0.27,-2.52,9.84
-2.38,-9.53,0.13,9.83,-9.52,0.26,-2.51,9.84
-2.37,-9.49,0.13,9.78,-9.51,0.25,-2.54,9.84
-2.34,-9.51,0.11,9.80,-9.52,0.24,-2.53,9.86
-2.35,-9.52,0.10,9.81,-9.53,0.25,-2.51,9.85
-2.30,-9.53,0.08,9.80,-9.56,0.27,-2.49,9.88
-2.34,-9.53,0.03,9.82,-9.53,0.29,-2.54,9.87
-2.43,-9.60,0.09,9.90,-9.55,0.26,-2.60,9.90
-2.42,-9.57,0.22,9.88,-9.53,0.26,-2.55,9.87
-2.35,-9.43,0.08,9.71,-9.53,0.27,-2.52,9.86
-2.29,-9.48,-0.04,9.75,-9.60,0.24,-2.66,9.96
-2.33,-9.58,0.01,9.86,-9.44,0.27,-2.33,9.73
-2.32,-9.52,-0.01,9.80,-9.53,0.27,-2.57,9.88
-2.42,-9.56,0.19,9.86,-9.52,0.32,-2.54,9.86
-2.40,-9.49,0.18,9.79,-9.51,0.25,-2.54,9.84
-2.36,-9.44,0.16,9.73,-9.50,0.25,-2.47,9.82
-2.41,-9.43,0.03,9.74,-9.52,0.25,-2.56,9.86
-2.38,-9.49,0.01,9.78,-9.50,0.32,-2.54,9.84
-2.40,-9.54,0.03,9.83,-9.57,0.30,-2.54,9.91
-2.36,-9.55,0.06,9.84,-9.58,0.29,-2.48,9.90
-2.36,-9.57,0.08,9.85,-9.56,0.26,-2.51,9.89
-2.34,-9.57,0.10,9.85,-9.56,0.27,-2.49,9.88
-2.37,-9.59,0.10,9.88,-9.55,0.28,-2.51,9.88
-2.39,-9.51,0.13,9.81,-9.52,0.30,-2.48,9.84
-2.42,-9.50,0.10,9.81,-9.52,0.28,-2.46,9.84
-2.39,-9.50,0.09,9.80,-9.51,0.28,-2.43,9.82
-2.39,-9.58,0.07,9.87,-9.54,0.28,-2.37,9.83
-2.36,-9.46,0.07,9.75,-9.55,0.24,-2.41,9.86
-2.35,-9.45,0.11,9.74,-9.54,0.25,-2.53,9.87
-2.37,-9.48,0.03,9.77,-9.54,0.26,-2.44,9.85
-2.37,-9.48,0.05,9.77,-9.55,0.26,-2.50,9.87
-2.35,-9.52,0.06,9.81,-9.52,0.26,-2.55,9.86
-2.39,-9.52,0.06,9.82,-9.53,0.30,-2.54,9.86
-2.37,-9.54,-0.04,9.84,-9.52,0.30,-2.58,9.86
-2.43,-9.55,0.02,9.86,-9.52,0.29,-2.55,9.86
-2.38,-9.54,0.04,9.83,-9.55,0.33,-2.55,9.89
-2.36,-9.55,0.06,9.84,-9.52,0.31,-2.50,9.85
-2.40,-9.52,0.05,9.81,-9.56,0.29,-2.56,9.90
-2.37,-9.57,0.12,9.86,-9.56,0.29,-2.57,9.90
-2.36,-9.52,0.15,9.81,-9.58,0.29,-2.49,9.90
-2.38,-9.50,0.06,9.79,-9.48,0.31,-2.51,9.81
-2.42,-9.52,-0.00,9.82,-9.52,0.31,-2.56,9.86
-2.42,-9.52,0.00,9.82,-9.51,0.30,-2.51,9.84
-2.37,-9.49,0.05,9.78,-9.54,0.32,-2.54,9.88
-2.38,-9.49,0.04,9.78,-9.52,0.31,-2.49,9.84
-2.36,-9.47,0.05,9.76,-9.51,0.29,-2.50,9.84
-2.37,-9.53,0.07,9.82,-9.56,0.31,-2.49,9.89
-2.37,-9.49,0.03,9.78,-9.52,0.30,-2.48,9.84
-2.38,-9.53,0.08,9.83,-9.53,0.31,-2.55,9.87
-2.36,-9.53,0.05,9.82,-9.52,0.29,-2.53,9.85
-2.34,-9.52,0.03,9.81,-9.52,0.28,-2.49,9.84
-2.37,-9.53,0.09,9.82,-9.55,0.30,-2.55,9.89
-2.39,-9.49,0.04,9.79,-9.53,0.30,-2.51,9.86
-2.39,-9.52,0.06,9.82,-9.52,0.30,-2.51,9.85
-2.36,-9.49,0.07,9.78,-9.50,0.32,-2.53,9.84
-2.37,-9.51,0.03,9.80,-9.52,0.28,-2.50,9.85
-2.40,-9.52,0.04,9.81,-9.53,0.29,-2.51,9.86
-2.40,-9.54,0.05,9.84,-9.54,0.26,-2.48,9.86
-2.40,-9.52,0.08,9.82,-9.53,0.31,-2.54,9.87
-2.40,-9.52,0.09,9.82,-9.52,0.32,-2.52,9.85
-2.42,-9.50,0.12,9.81,-9.52,0.31,-2.49,9.85
-2.39,-9.49,0.10,9.79,-9.52,0.33,-2.47,9.84
-2.39,-9.51,0.10,9.80,-9.54,0.31,-2.50,9.87
-2.38,-9.49,0.08,9.78,-9.52,0.32,-2.51,9.85
-2.39,-9.52,0.08,9.81,-9.53,0.32,-2.52,9.86
-2.38,-9.52,0.06,9.81,-9.52,0.31,-2.52,9.86
-2.38,-9.51,0.05,9.81,-9.53,0.27,-2.52,9.86
-2.39,-9.51,0.05,9.80,-9.50,0.29,-2.50,9.83
-2.37,-9.48,0.05,9.77,-9.53,0.29,-2.51,9.86
-2.39,-9.48,0.03,9.78,-9.53,0.29,-2.52,9.86
-2.38,-9.52,0.07,9.81,-9.51,0.30,-2.50,9.83
-2.37,-9.53,0.06,9.82,-9.51,0.28,-2.52,9.85
-2.41,-9.50,0.08,9.80,-9.53,0.31,-2.52,9.86
-2.40,-9.50,0.10,9.80,-9.54,0.29,-2.54,9.87
-2.39,-9.52,0.09,9.81,-9.55,0.33,-2.52,9.89
-2.42,-9.51,0.05,9.81,-9.53,0.31,-2.52,9.87
-2.41,-9.51,0.05,9.81,-9.53,0.31,-2.52,9.87
-2.40,-9.54,0.05,9.84,-9.54,0.31,-2.51,9.86
-2.37,-9.55,0.07,9.84,-9.53,0.29,-2.53,9.87
-2.39,-9.53,0.07,9.83,-9.53,0.28,-2.55,9.87
-2.38,-9.53,0.07,9.82,-9.55,0.29,-2.50,9.88
-2.37,-9.52,0.06,9.82,-9.55,0.31,-2.50,9.88
-2.36,-9.52,0.08,9.81,-9.54,0.26,-2.52,9.87
-2.37,-9.54,0.11,9.83,-9.53,0.27,-2.52,9.86
-2.35,-9.52,0.12,9.80,-9.52,0.28,-2.51,9.85
-2.37,-9.52,0.08,9.81,-9.51,0.30,-2.52,9.84
-2.38,-9.50,0.10,9.80,-9.48,0.30,-2.52,9.81
-2.36,-9.52,0.09,9.80,-9.53,0.31,-2.54,9.87
-2.37,-9.51,0.09,9.80,-9.50,0.31,-2.54,9.84
-2.38,-9.52,0.08,9.82,-9.56,0.30,-2.51,9.89
-2.37,-9.54,0.05,9.83,-9.51,0.31,-2.52,9.85
-2.38,-9.52,0.10,9.82,-9.52,0.29,-2.53,9.85
-2.40,-9.54,0.04,9.84,-9.54,0.30,-2.49,9.86
-2.40,-9.52,0.07,9.82,-9.55,0.28,-2.51,9.87
-2.39,-9.55,0.03,9.84,-9.51,0.30,-2.51,9.84
-2.41,-9.57,0.08,9.87,-9.54,0.28,-2.57,9.89
-2.37,-9.53,0.10,9.82,-9.55,0.28,-2.54,9.88
-2.36,-9.55,0.12,9.84,-9.53,0.29,-2.57,9.88
-2.32,-9.52,0.07,9.80,-9.53,0.29,-2.52,9.86
-2.43,-9.58,0.21,9.88,-9.58,0.29,-2.63,9.94
-2.40,-9.54,0.18,9.84,-9.55,0.31,-2.46,9.87
-2.35,-9.43,0.07,9.72,-9.55,0.28,-2.67,9.92
-2.30,-9.49,-0.07,9.77,-9.54,0.25,-2.58,9.88
-2.36,-9.59,-0.00,9.88,-9.50,0.27,-2.38,9.79
-2.38,-9.55,0.04,9.84,-9.52,0.28,-2.59,9.87
-2.44,-9.57,0.15,9.87,-9.52,0.30,-2.65,9.89
-2.38,-9.50,0.19,9.80,-9.48,0.27,-2.57,9.82
-2.36,-9.45,0.17,9.74,-9.46,0.28,-2.51,9.79
-2.38,-9.42,0.02,9.71,-9.45,0.28,-2.55,9.79
-2.41,-9.48,0.02,9.78,-9.50,0.31,-2.55,9.84
-2.40,-9.56,0.07,9.86,-9.53,0.33,-2.57,9.88
-2.42,-9.57,0.07,9.87,-9.58,0.28,-2.60,9.93
-2.35,-9.55,0.11,9.83,-9.60,0.29,-2.54,9.93
-2.37,-9.59,0.11,9.88,-9.61,0.27,-2.53,9.94
-2.41,-9.58,0.10,9.88,-9.58,0.28,-2.56,9.92
-2.40,-9.56,0.11,9.85,-9.53,0.31,-2.55,9.87
-2.41,-9.56,0.12,9.86,-9.52,0.29,-2.52,9.85
-2.39,-9.53,0.15,9.83,-9.51,0.28,-2.51,9.84
-2.34,-9.52,0.18,9.81,-9.53,0.27,-2.55,9.87
-2.35,-9.51,0.20,9.79,-9.50,0.26,-2.51,9.83
-2.34,-9.50,0.19,9.78,-9.49,0.28,-2.53,9.82
-2.32,-9.50,0.15,9.78,-9.49,0.28,-2.55,9.83
-2.36,-9.49,0.20,9.78,-9.49,0.27,-2.58,9.84
-2.38,-9.48,0.17,9.78,-9.49,0.26,-2.57,9.83
-2.40,-9.52,0.22,9.82,-9.51,0.26,-2.55,9.85
-2.43,-9.51,0.14,9.82,-9.57,0.29,-2.54,9.90
-2.41,-9.53,0.14,9.84,-9.57,0.30,-2.55,9.91
-2.37,-9.56,0.15,9.85,-9.58,0.30,-2.56,9.92
-2.41,-9.55,0.13,9.85,-9.55,0.32,-2.53,9.89
-2.41,-9.57,0.23,9.87,-9.54,0.30,-2.66,9.91
-2.39,-9.57,0.24,9.86,-9.55,0.30,-2.50,9.87
-2.35,-9.58,0.25,9.87,-9.54,0.27,-2.58,9.89
-2.36,-9.50,0.19,9.79,-9.51,0.29,-2.56,9.85
-2.39,-9.51,0.23,9.81,-9.48,0.29,-2.56,9.83
-2.42,-9.50,0.21,9.80,-9.49,0.29,-2.57,9.84
-2.36,-9.51,0.14,9.80,-9.52,0.28,-2.57,9.87
-2.36,-9.51,0.24,9.80,-9.53,0.28,-2.53,9.86
-2.34,-9.50,0.21,9.78,-9.50,0.27,-2.55,9.84
-2.35,-9.55,0.28,9.84,-9.51,0.28,-2.55,9.85
-2.36,-9.52,0.22,9.81,-9.51,0.24,-2.58,9.85
-2.34,-9.54,0.26,9.82,-9.50,0.28,-2.60,9.85
-2.36,-9.54,0.18,9.83,-9.54,0.27,-2.60,9.89
-2.35,-9.50,0.22,9.78,-9.52,0.27,-2.58,9.87
-2.31,-9.52,0.20,9.80,-9.49,0.28,-2.59,9.84
-2.38,-9.53,0.24,9.82,-9.48,0.28,-2.57,9.83
-2.34,-9.49,0.25,9.78,-9.52,0.27,-2.58,9.87
-2.35,-9.57,0.25,9.86,-9.54,0.26,-2.59,9.88
-2.36,-9.56,0.22,9.85,-9.53,0.27,-2.58,9.88
-2.38,-9.59,0.12,9.88,-9.52,0.25,-2.60,9.88
-2.37,-9.55,0.15,9.84,-9.50,0.28,-2.61,9.86
-2.36,-9.57,0.28,9.86,-9.49,0.26,-2.67,9.86
-2.37,-9.52,0.19,9.81,-9.50,0.28,-2.67,9.88
-2.41,-9.57,0.22,9.87,-9.50,0.28,-2.67,9.87
-2.35,-9.49,0.24,9.78,-9.46,0.29,-2.68,9.84
-2.35,-9.48,0.20,9.77,-9.46,0.25,-2.67,9.84
-2.39,-9.49,0.26,9.79,-9.48,0.26,-2.66,9.85
-2.34,-9.52,0.26,9.81,-9.45,0.25,-2.67,9.82
-2.32,-9.49,0.28,9.78,-9.45,0.22,-2.68,9.82
-2.32,-9.51,0.24,9.79,-9.46,0.25,-2.63,9.82
-2.32,-9.53,0.24,9.81,-9.49,0.24,-2.60,9.84
-2.35,-9.54,0.23,9.83,-9.49,0.23,-2.61,9.85
-2.36,-9.53,0.23,9.82,-9.52,0.23,-2.64,9.89
-2.37,-9.55,0.27,9.84,-9.49,0.27,-2.64,9.86
-2.39,-9.53,0.26,9.83,-9.51,0.26,-2.67,9.88
-2.43,-9.53,0.22,9.84,-9.51,0.27,-2.65,9.88
-2.38,-9.51,0.22,9.81,-9.51,0.28,-2.65,9.88
-2.42,-9.64,0.32,9.94,-9.48,0.28,-2.67,9.86
-2.40,-9.54,0.29,9.85,-9.51,0.28,-2.64,9.87
-2.38,-9.50,0.10,9.79,-9.49,0.27,-2.64,9.85
-2.38,-9.50,0.29,9.80,-9.53,0.27,-2.65,9.89
-2.37,-9.53,0.26,9.82,-9.50,0.27,-2.66,9.87
-2.40,-9.53,0.36,9.83,-9.55,0.24,-2.75,9.94
-2.38,-9.48,0.21,9.78,-9.48,0.22,-2.59,9.83
-2.40,-9.53,0.32,9.84,-9.52,0.25,-2.70,9.90
-2.34,-9.49,0.10,9.77,-9.48,0.25,-2.67,9.85
-2.38,-9.52,0.33,9.82,-9.49,0.25,-2.70,9.87
-2.36,-9.50,0.28,9.79,-9.51,0.24,-2.71,9.89
-2.34,-9.49,0.37,9.79,-9.46,0.27,-2.65,9.83
-2.31,-9.50,0.22,9.78,-9.48,0.26,-2.68,9.86
-2.36,-9.50,0.35,9.80,-9.46,0.28,-2.67,9.84
-2.33,-9.50,0.34,9.79,-9.49,0.24,-2.62,9.85
-2.34,-9.51,0.28,9.79,-9.53,0.23,-2.64,9.90
-2.37,-9.62,0.42,9.91,-9.50,0.24,-2.61,9.86
-2.30,-9.52,0.29,9.80,-9.51,0.26,-2.65,9.88
-2.37,-9.54,0.36,9.84,-9.53,0.26,-2.67,9.90
-2.41,-9.59,0.27,9.89,-9.51,0.27,-2.73,9.90
-2.44,-9.54,0.58,9.86,-9.50,0.25,-2.71,9.89
-2.37,-9.49,0.57,9.80,-9.47,0.23,-2.53,9.81
-2.38,-9.41,0.30,9.71,-9.49,0.26,-2.73,9.88
-2.33,-9.44,0.34,9.72,-9.48,0.24,-2.65,9.84
-2.29,-9.51,0.21,9.78,-9.50,0.22,-2.71,9.88
-2.32,-9.51,0.30,9.79,-9.44,0.21,-2.73,9.83
-2.40,-9.51,0.38,9.81,-9.42,0.21,-2.74,9.81
-2.44,-9.52,0.39,9.84,-9.48,0.27,-2.65,9.84
-2.42,-9.46,0.34,9.77,-9.45,0.28,-2.66,9.82
-2.41,-9.53,0.22,9.83,-9.50,0.30,-2.68,9.88
-2.40,-9.57,0.27,9.87,-9.54,0.29,-2.67,9.91
-2.34,-9.57,0.34,9.86,-9.53,0.25,-2.65,9.90
-2.30,-9.56,0.32,9.83,-9.54,0.25,-2.69,9.92
-2.29,-9.55,0.33,9.83,-9.49,0.22,-2.67,9.86
-2.36,-9.56,0.39,9.85,-9.49,0.21,-2.66,9.86
-2.36,-9.51,0.34,9.81,-9.49,0.24,-2.66,9.86
-2.39,-9.50,0.35,9.80,-9.47,0.27,-2.64,9.84
-2.38,-9.50,0.32,9.80,-9.51,0.23,-2.63,9.87
-2.36,-9.50,0.21,9.79,-9.47,0.24,-2.62,9.83
-2.32,-9.49,0.33,9.78,-9.49,0.23,-2.61,9.85
-2.34,-9.52,0.30,9.80,-9.50,0.23,-2.63,9.86
-2.34,-9.53,0.32,9.82,-9.51,0.24,-2.61,9.86
-2.33,-9.52,0.33,9.81,-9.53,0.25,-2.65,9.89
-2.36,-9.51,0.23,9.80,-9.48,0.22,-2.70,9.86
-2.38,-9.58,0.39,9.88,-9.51,0.23,-2.65,9.87
-2.38,-9.56,0.29,9.85,-9.49,0.25,-2.65,9.86
-2.35,-9.51,0.41,9.81,-9.54,0.26,-2.67,9.91
-2.34,-9.55,0.33,9.84,-9.49,0.23,-2.55,9.83
-2.37,-9.55,0.30,9.84,-9.53,0.28,-2.80,9.93
-2.35,-9.55,0.41,9.84,-9.44,0.20,-2.66,9.81
-2.32,-9.49,0.36,9.77,-9.47,0.21,-2.67,9.84
-2.33,-9.51,0.33,9.80,-9.49,0.21,-2.60,9.85
-2.34,-9.50,0.32,9.79,-9.49,0.26,-2.69,9.86
-2.36,-9.51,0.37,9.81,-9.47,0.24,-2.68,9.84
-2.34,-9.48,0.32,9.77,-9.47,0.23,-2.66,9.84
-2.33,-9.51,0.23,9.80,-9.47,0.23,-2.63,9.83
-2.35,-9.52,0.25,9.81,-9.46,0.21,-2.65,9.83
-2.34,-9.53,0.26,9.82,-9.51,0.21,-2.69,9.88
-2.34,-9.53,0.28,9.82,-9.48,0.23,-2.69,9.85
-2.33,-9.53,0.28,9.82,-9.49,0.22,-2.74,9.88
-2.35,-9.52,0.29,9.81,-9.48,0.23,-2.69,9.86
-2.35,-9.53,0.32,9.82,-9.47,0.22,-2.69,9.85
-2.32,-9.53,0.30,9.81,-9.49,0.24,-2.68,9.87
-2.33,-9.51,0.22,9.79,-9.49,0.22,-2.69,9.87
-2.32,-9.54,0.23,9.82,-9.51,0.22,-2.66,9.88
-2.31,-9.52,0.19,9.80,-9.52,0.23,-2.67,9.89
-2.36,-9.53,0.18,9.82,-9.51,0.23,-2.65,9.88
-2.35,-9.54,0.20,9.82,-9.50,0.22,-2.68,9.87
-2.36,-9.55,0.22,9.84,-9.50,0.22,-2.67,9.87
-2.37,-9.52,0.25,9.81,-9.51,0.22,-2.68,9.88
-2.38,-9.53,0.29,9.83,-9.47,0.22,-2.69,9.85
-2.36,-9.52,0.29,9.81,-9.50,0.22,-2.70,9.87
-2.33,-9.51,0.30,9.80,-9.46,0.21,-2.70,9.84
-2.34,-9.49,0.29,9.78,-9.49,0.22,-2.66,9.85
-2.33,-9.48,0.29,9.77,-9.44,0.21,-2.68,9.81
-2.32,-9.48,0.32,9.77,-9.47,0.21,-2.68,9.84
-2.33,-9.50,0.28,9.78,-9.47,0.21,-2.67,9.84
-2.34,-9.53,0.23,9.82,-9.49,0.21,-2.68,9.86
-2.33,-9.54,0.28,9.83,-9.48,0.18,-2.64,9.84
-2.31,-9.53,0.26,9.81,-9.50,0.20,-2.66,9.87
-2.36,-9.54,0.24,9.83,-9.50,0.21,-2.65,9.86
-2.34,-9.55,0.25,9.84,-9.49,0.23,-2.65,9.86
-2.32,-9.52,0.25,9.80,-9.52,0.21,-2.66,9.88
-2.33,-9.53,0.24,9.81,-9.48,0.23,-2.64,9.84
-2.33,-9.53,0.25,9.81,-9.53,0.23,-2.62,9.88
-2.34,-9.55,0.26,9.84,-9.52,0.22,-2.64,9.89
-2.35,-9.54,0.28,9.83,-9.50,0.23,-2.63,9.86
-2.37,-9.54,0.23,9.84,-9.52,0.25,-2.66,9.89
-2.37,-9.51,0.21,9.80,-9.53,0.22,-2.64,9.89
-2.35,-9.52,0.19,9.81,-9.50,0.24,-2.65,9.87
-2.36,-9.54,0.21,9.82,-9.51,0.23,-2.64,9.87
-2.37,-9.51,0.21,9.80,-9.52,0.24,-2.63,9.88
-2.35,-9.52,0.23,9.81,-9.50,0.24,-2.63,9.86
-2.30,-9.50,0.23,9.78,-9.53,0.22,-2.61,9.88
-2.34,-9.55,0.22,9.83,-9.49,0.24,-2.65,9.86
-2.40,-9.57,0.26,9.87,-9.52,0.28,-2.72,9.90
-2.39,-9.54,0.39,9.85,-9.52,0.24,-2.64,9.88
-2.31,-9.44,0.27,9.73,-9.46,0.22,-2.54,9.80
-2.28,-9.37,0.06,9.64,-9.49,0.22,-2.67,9.86
-2.30,-9.56,0.24,9.83,-9.50,0.19,-2.58,9.84
-2.31,-9.58,0.25,9.85,-9.52,0.21,-2.60,9.87
-2.36,-9.50,0.15,9.79,-9.52,0.20,-2.71,9.90
-2.38,-9.54,0.28,9.84,-9.47,0.21,-2.65,9.84
-2.37,-9.49,0.28,9.79,-9.48,0.24,-2.55,9.82
-2.36,-9.47,0.14,9.76,-9.50,0.21,-2.54,9.83
-2.36,-9.53,0.11,9.82,-9.47,0.27,-2.63,9.84
-2.42,-9.56,0.44,9.88,-9.51,0.25,-2.58,9.85
-2.33,-9.55,0.24,9.83,-9.53,0.26,-2.59,9.88
-2.32,-9.49,0.13,9.77,-9.52,0.25,-2.53,9.85
-2.30,-9.57,0.25,9.84,-9.55,0.22,-2.59,9.90
-2.29,-9.52,0.08,9.79,-9.51,0.23,-2.57,9.85
-2.37,-9.54,0.21,9.83,-9.48,0.22,-2.56,9.83
-2.37,-9.53,0.25,9.83,-9.52,0.23,-2.56,9.86
-2.34,-9.50,0.22,9.79,-9.49,0.22,-2.60,9.84
-2.33,-9.50,0.19,9.79,-9.51,0.27,-2.56,9.85
-2.32,-9.53,0.16,9.81,-9.51,0.23,-2.57,9.85
-2.34,-9.54,0.22,9.83,-9.52,0.27,-2.59,9.87
-2.36,-9.56,0.18,9.84,-9.52,0.25,-2.60,9.87
-2.34,-9.53,0.18,9.81,-9.53,0.24,-2.59,9.88
-2.37,-9.55,0.17,9.85,-9.54,0.26,-2.61,9.89
-2.39,-9.57,0.21,9.87,-9.52,0.29,-2.60,9.87
-2.38,-9.50,0.17,9.79,-9.52,0.28,-2.61,9.88
-2.37,-9.54,0.14,9.83,-9.52,0.27,-2.60,9.87
-2.30,-9.57,0.13,9.85,-9.57,0.28,-2.60,9.92
-2.38,-9.56,0.08,9.85,-9.52,0.27,-2.54,9.86
-2.41,-9.57,0.19,9.87,-9.54,0.25,-2.70,9.92
-2.36,-9.58,0.20,9.87,-9.57,0.27,-2.53,9.90
-2.38,-9.51,0.18,9.80,-9.52,0.24,-2.55,9.86
-2.41,-9.52,0.22,9.83,-9.54,0.24,-2.57,9.89
-2.37,-9.51,0.22,9.81,-9.50,0.26,-2.59,9.85
-2.37,-9.48,0.17,9.77,-9.54,0.28,-2.57,9.88
-2.37,-9.53,0.13,9.83,-9.51,0.29,-2.60,9.86
-2.36,-9.52,0.17,9.81,-9.51,0.28,-2.51,9.84
-2.34,-9.53,0.16,9.82,-9.51,0.25,-2.57,9.85
-2.32,-9.55,0.18,9.83,-9.52,0.23,-2.56,9.86
-2.35,-9.54,0.16,9.83,-9.51,0.27,-2.55,9.84
-2.36,-9.55,0.16,9.84,-9.51,0.26,-2.57,9.86
-2.37,-9.53,0.18,9.83,-9.51,0.27,-2.57,9.86
-2.37,-9.52,0.15,9.81,-9.52,0.27,-2.59,9.87
-2.37,-9.54,0.17,9.83,-9.52,0.27,-2.58,9.87
-2.34,-9.51,0.15,9.80,-9.49,0.27,-2.56,9.83
-2.34,-9.48,0.14,9.76,-9.50,0.27,-2.57,9.84
-2.33,-9.48,0.14,9.76,-9.52,0.25,-2.54,9.85
-2.35,-9.52,0.13,9.81,-9.52,0.24,-2.54,9.85
-2.36,-9.57,0.16,9.85,-9.54,0.23,-2.53,9.87
-2.36,-9.57,0.17,9.86,-9.55,0.25,-2.58,9.90
-2.34,-9.55,0.18,9.83,-9.54,0.25,-2.52,9.88
-2.37,-9.55,0.16,9.85,-9.53,0.26,-2.52,9.86
-2.40,-9.58,0.15,9.87,-9.52,0.26,-2.51,9.85
-2.34,-9.52,0.13,9.81,-9.52,0.29,-2.55,9.86
-2.36,-9.54,0.16,9.83,-9.53,0.30,-2.56,9.87
-2.38,-9.56,0.15,9.85,-9.54,0.28,-2.50,9.86
-2.38,-9.53,0.15,9.82,-9.52,0.29,-2.54,9.86
-2.35,-9.54,0.17,9.82,-9.53,0.28,-2.54,9.86
-2.37,-9.51,0.14,9.80,-9.51,0.28,-2.53,9.85
-2.38,-9.52,0.11,9.82,-9.49,0.28,-2.53,9.83
-2.38,-9.53,0.18,9.83,-9.52,0.29,-2.56,9.86
-2.38,-9.48,0.11,9.77,-9.52,0.29,-2.53,9.85
-2.38,-9.53,0.13,9.82,-9.52,0.29,-2.56,9.87
-2.38,-9.52,0.08,9.81,-9.50,0.30,-2.56,9.85
-2.40,-9.53,0.11,9.83,-9.54,0.28,-2.58,9.89
-2.40,-9.49,0.08,9.79,-9.54,0.30,-2.56,9.88
-2.43,-9.52,0.07,9.83,-9.52,0.29,-2.57,9.87
-2.43,-9.63,0.15,9.93,-9.54,0.31,-2.54,9.88
-2.41,-9.54,0.14,9.84,-9.52,0.30,-2.56,9.86
-2.39,-9.53,0.13,9.83,-9.52,0.29,-2.51,9.85
-2.38,-9.52,0.14,9.81,-9.52,0.27,-2.51,9.85
-2.40,-9.49,0.12,9.79,-9.53,0.26,-2.53,9.87
-2.36,-9.53,0.11,9.82,-9.54,0.25,-2.57,9.88
-2.38,-9.54,0.11,9.83,-9.54,0.27,-2.54,9.88
-2.35,-9.55,0.08,9.83,-9.54,0.29,-2.50,9.87
-2.34,-9.46,0.03,9.75,-9.55,0.28,-2.53,9.88
-2.46,-9.58,0.11,9.89,-9.56,0.31,-2.58,9.91
-2.41,-9.55,0.28,9.85,-9.52,0.28,-2.49,9.85
-2.37,-9.42,0.13,9.71,-9.48,0.30,-2.42,9.79
-2.32,-9.42,-0.04,9.71,-9.58,0.28,-2.65,9.95
-2.33,-9.57,0.03,9.85,-9.49,0.27,-2.46,9.81
-2.29,-9.56,0.01,9.83,-9.49,0.29,-2.43,9.80
-2.40,-9.60,0.14,9.89,-9.52,0.28,-2.62,9.88
-2.41,-9.57,0.23,9.87,-9.50,0.28,-2.55,9.84
-2.38,-9.45,0.22,9.75,-9.49,0.30,-2.50,9.82
-2.35,-9.42,0.09,9.71,-9.51,0.25,-2.49,9.83
-2.37,-9.47,0.06,9.77,-9.45,0.33,-2.58,9.80
-2.42,-9.57,0.14,9.87,-9.54,0.30,-2.57,9.89
-2.42,-9.54,0.04,9.85,-9.56,0.32,-2.54,9.89
-2.39,-9.54,0.06,9.84,-9.57,0.31,-2.52,9.90
-2.37,-9.55,0.10,9.84,-9.57,0.29,-2.51,9.90
-2.34,-9.58,0.09,9.86,-9.57,0.29,-2.48,9.89
-2.39,-9.57,0.10,9.86,-9.56,0.33,-2.53,9.90
-2.39,-9.55,0.09,9.85,-9.56,0.30,-2.51,9.89
-2.40,-9.53,0.10,9.83,-9.54,0.30,-2.49,9.87
-2.40,-9.52,0.09,9.82,-9.53,0.29,-2.45,9.84
-2.37,-9.49,0.09,9.79,-9.52,0.28,-2.48,9.84
-2.35,-9.52,0.08,9.80,-9.52,0.29,-2.49,9.85
-2.37,-9.51,0.08,9.81,-9.54,0.28,-2.51,9.87
-2.34,-9.53,0.11,9.81,-9.51,0.26,-2.54,9.85
-2.36,-9.52,0.09,9.81,-9.50,0.23,-2.50,9.83
-2.39,-9.51,0.06,9.81,-9.48,0.26,-2.49,9.80
-2.40,-9.49,0.03,9.78,-9.50,0.27,-2.52,9.83
-2.38,-9.51,0.04,9.80,-9.53,0.30,-2.51,9.86
-2.38,-9.51,0.06,9.81,-9.54,0.28,-2.48,9.86
-2.37,-9.36,0.08,9.65,-9.55,0.29,-2.51,9.88
-2.39,-9.49,0.01,9.78,-9.54,0.32,-2.48,9.86
-2.42,-9.55,0.10,9.85,-9.56,0.31,-2.57,9.91
-2.41,-9.57,0.17,9.87,-9.59,0.29,-2.49,9.91
-2.38,-9.51,0.11,9.80,-9.53,0.29,-2.47,9.85
-2.38,-9.49,0.05,9.79,-9.51,0.30,-2.48,9.83
-2.42,-9.52,0.05,9.82,-9.52,0.29,-2.53,9.86
-2.42,-9.50,0.04,9.80,-9.51,0.31,-2.52,9.84
-2.38,-9.49,0.06,9.78,-9.55,0.29,-2.51,9.88
-2.34,-9.51,0.04,9.79,-9.53,0.28,-2.50,9.85
-2.38,-9.53,0.04,9.82,-9.52,0.30,-2.47,9.84
-2.38,-9.54,0.03,9.83,-9.55,0.30,-2.49,9.87
-2.38,-9.53,0.02,9.83,-9.52,0.28,-2.53,9.86
-2.40,-9.54,0.02,9.84,-9.54,0.29,-2.49,9.86
-2.37,-9.52,0.06,9.82,-9.50,0.30,-2.53,9.83
-2.38,-9.52,0.08,9.81,-9.55,0.29,-2.52,9.88
-2.36,-9.52,0.10,9.80,-9.54,0.27,-2.51,9.86
-2.35,-9.50,0.08,9.79,-9.52,0.29,-2.51,9.85
-2.36,-9.48,0.07,9.77,-9.52,0.30,-2.50,9.85
-2.36,-9.51,0.04,9.80,-9.52,0.27,-2.51,9.84
-2.37,-9.52,0.07,9.81,-9.53,0.28,-2.52,9.87
-2.36,-9.52,0.06,9.81,-9.54,0.26,-2.51,9.87
-2.38,-9.54,0.07,9.83,-9.55,0.27,-2.55,9.89
-2.39,-9.54,0.08,9.83,-9.55,0.29,-2.52,9.88
-2.38,-9.52,0.08,9.82,-9.54,0.30,-2.54,9.88
-2.36,-9.52,0.07,9.81,-9.53,0.31,-2.51,9.86
-2.33,-9.51,0.09,9.79,-9.53,0.31,-2.53,9.86
-2.34,-9.53,0.09,9.81,-9.53,0.30,-2.51,9.86
-2.36,-9.53,0.09,9.82,-9.52,0.30,-2.51,9.85
-2.36,-9.50,0.10,9.79,-9.52,0.28,-2.46,9.84
-2.37,-9.53,0.08,9.82,-9.52,0.29,-2.51,9.85
-2.39,-9.49,0.08,9.79,-9.51,0.28,-2.50,9.83
-2.37,-9.52,0.10,9.81,-9.52,0.31,-2.50,9.84
-2.38,-9.52,0.11,9.82,-9.50,0.28,-2.49,9.83
-2.39,-9.51,0.06,9.81,-9.52,0.28,-2.50,9.85
-2.37,-9.52,0.06,9.81,-9.55,0.29,-2.51,9.88
-2.36,-9.53,0.05,9.82,-9.53,0.27,-2.49,9.85
-2.37,-9.54,0.06,9.83,-9.53,0.27,-2.51,9.86
-2.40,-9.52,0.05,9.81,-9.54,0.25,-2.51,9.86
-2.38,-9.52,0.05,9.81,-9.54,0.28,-2.52,9.87
-2.35,-9.53,0.08,9.81,-9.53,0.28,-2.52,9.86
-2.37,-9.51,0.09,9.80,-9.52,0.26,-2.52,9.85
-2.38,-9.53,0.07,9.83,-9.53,0.30,-2.49,9.86
-2.38,-9.51,0.07,9.80,-9.54,0.27,-2.53,9.87
-2.39,-9.51,0.06,9.81,-9.55,0.30,-2.53,9.89
-2.39,-9.52,0.05,9.81,-9.52,0.28,-2.49,9.84
-2.38,-9.54,0.05,9.84,-9.57,0.28,-2.47,9.88
-2.33,-9.52,0.05,9.80,-9.55,0.30,-2.48,9.87
-2.35,-9.51,0.02,9.80,-9.58,0.28,-2.48,9.90
-2.42,-9.60,0.10,9.90,-9.59,0.31,-2.54,9.93
-2.39,-9.58,0.23,9.88,-9.55,0.29,-2.53,9.88
-2.38,-9.51,0.14,9.80,-9.52,0.28,-2.42,9.83
-2.30,-9.38,0.03,9.66,-9.57,0.25,-2.65,9.94
-2.30,-9.58,0.03,9.85,-9.51,0.26,-2.40,9.81
-2.32,-9.53,-0.00,9.81,-9.50,0.27,-2.40,9.81
-2.38,-9.55,0.09,9.84,-9.57,0.31,-2.63,9.93
-2.43,-9.58,0.17,9.89,-9.54,0.26,-2.50,9.86
-2.39,-9.49,0.16,9.79,-9.52,0.28,-2.50,9.84
-2.37,-9.46,0.03,9.75,-9.53,0.27,-2.49,9.85
-2.39,-9.49,-0.02,9.78,-9.52,0.28,-2.56,9.86
-2.40,-9.51,0.01,9.81,-9.52,0.31,-2.51,9.85
-2.41,-9.53,0.05,9.83,-9.55,0.31,-2.48,9.87
-2.35,-9.54,0.08,9.83,-9.57,0.28,-2.48,9.89
-2.35,-9.57,0.09,9.86,-9.56,0.27,-2.51,9.89
-2.38,-9.57,0.11,9.87,-9.55,0.29,-2.49,9.88
-2.39,-9.53,0.09,9.83,-9.54,0.29,-2.50,9.87
-2.36,-9.50,0.09,9.79,-9.51,0.30,-2.47,9.83
-2.39,-9.49,0.06,9.79,-9.52,0.30,-2.47,9.84
-2.38,-9.54,0.04,9.83,-9.51,0.28,-2.46,9.83
-2.37,-9.48,0.03,9.77,-9.52,0.26,-2.47,9.83
-2.35,-9.51,0.06,9.80,-9.57,0.27,-2.45,9.88
-2.37,-9.51,0.09,9.80,-9.50,0.28,-2.48,9.83
-2.34,-9.49,0.07,9.78,-9.52,0.28,-2.51,9.85
-2.38,-9.52,0.06,9.82,-9.51,0.29,-2.52,9.84
-2.38,-9.53,0.05,9.82,-9.49,0.31,-2.49,9.82
-2.41,-9.48,0.07,9.78,-9.50,0.31,-2.51,9.83
-2.37,-9.47,0.01,9.77,-9.51,0.31,-2.50,9.84
-2.39,-9.53,0.06,9.82,-9.51,0.30,-2.50,9.84
-2.38,-9.51,0.07,9.80,-9.52,0.32,-2.48,9.85
-2.38,-9.49,-0.02,9.78,-9.53,0.34,-2.52,9.86
-2.39,-9.56,0.05,9.85,-9.59,0.30,-2.55,9.93
-2.42,-9.60,0.10,9.90,-9.56,0.30,-2.49,9.89
-2.40,-9.52,0.01,9.82,-9.55,0.28,-2.49,9.88
-2.38,-9.52,-0.02,9.81,-9.54,0.31,-2.55,9.88
-2.42,-9.53,-0.00,9.83,-9.52,0.32,-2.54,9.85
-2.37,-9.55,0.03,9.84,-9.54,0.31,-2.52,9.87
-2.35,-9.52,0.05,9.80,-9.53,0.29,-2.50,9.85
-2.33,-9.51,0.05,9.79,-9.52,0.26,-2.47,9.84
-2.35,-9.54,0.06,9.82,-9.56,0.28,-2.48,9.88
-2.33,-9.55,0.06,9.83,-9.54,0.28,-2.49,9.86
-2.35,-9.53,0.04,9.82,-9.55,0.29,-2.48,9.87
-2.38,-9.54,0.03,9.83,-9.54,0.29,-2.52,9.88
-2.37,-9.53,0.04,9.82,-9.54,0.30,-2.50,9.87
-2.39,-9.53,0.04,9.82,-9.52,0.29,-2.50,9.85
-2.40,-9.51,0.05,9.81,-9.53,0.29,-2.50,9.86
-2.37,-9.52,0.07,9.81,-9.54,0.28,-2.46,9.86
-2.38,-9.51,0.09,9.81,-9.50,0.29,-2.52,9.83
-2.38,-9.54,0.02,9.83,-9.50,0.30,-2.50,9.83
-2.39,-9.51,0.08,9.80,-9.52,0.28,-2.49,9.84
-2.38,-9.53,0.08,9.82,-9.53,0.27,-2.50,9.86
-2.42,-9.56,0.10,9.86,-9.55,0.31,-2.47,9.87
-2.39,-9.52,0.10,9.82,-9.50,0.30,-2.48,9.82
-2.37,-9.52,0.09,9.81,-9.53,0.29,-2.49,9.85
-2.36,-9.56,0.08,9.85,-9.53,0.25,-2.49,9.85
-2.35,-9.50,0.08,9.79,-9.53,0.30,-2.48,9.86
-2.34,-9.51,0.08,9.79,-9.53,0.26,-2.51,9.85
-2.34,-9.53,0.10,9.81,-9.54,0.29,-2.48,9.86
-2.35,-9.52,0.08,9.81,-9.52,0.30,-2.47,9.83
-2.37,-9.50,0.08,9.79,-9.54,0.32,-2.49,9.86
-2.36,-9.51,0.09,9.80,-9.51,0.28,-2.48,9.83
-2.36,-9.51,0.11,9.80,-9.52,0.30,-2.49,9.84
-2.38,-9.51,0.08,9.81,-9.54,0.30,-2.48,9.87
-2.37,-9.50,0.08,9.79,-9.54,0.30,-2.49,9.86
-2.39,-9.53,0.05,9.82,-9.55,0.30,-2.46,9.87
-2.40,-9.54,0.04,9.83,-9.54,0.28,-2.48,9.87
-2.38,-9.54,0.03,9.84,-9.56,0.29,-2.50,9.88
-2.36,-9.55,0.06,9.84,-9.54,0.31,-2.52,9.87
-2.37,-9.54,0.05,9.83,-9.54,0.29,-2.51,9.87
-2.34,-9.52,0.06,9.80,-9.54,0.29,-2.53,9.88
-2.35,-9.54,0.04,9.83,-9.54,0.28,-2.53,9.88
-2.35,-9.53,0.05,9.81,-9.52,0.27,-2.54,9.86
-2.33,-9.51,0.05,9.79,-9.51,0.28,-2.54,9.84
-2.31,-9.51,0.08,9.79,-9.49,0.25,-2.54,9.82
-2.33,-9.51,0.09,9.79,-9.52,0.27,-2.53,9.85
-2.36,-9.50,0.10,9.79,-9.48,0.27,-2.52,9.81
-2.35,-9.49,0.06,9.78,-9.50,0.26,-2.49,9.83
-2.35,-9.50,0.01,9.79,-9.51,0.26,-2.50,9.83
-2.34,-9.51,0.04,9.79,-9.52,0.29,-2.51,9.85
-2.37,-9.53,0.04,9.82,-9.54,0.30,-2.50,9.87
-2.30,-9.51,0.00,9.78,-9.55,0.30,-2.48,9.87
-2.33,-9.44,0.00,9.73,-9.58,0.29,-2.50,9.90
-2.46,-9.60,0.14,9.91,-9.55,0.31,-2.58,9.90
-2.39,-9.57,0.19,9.87,-9.53,0.33,-2.42,9.84
-2.37,-9.43,0.08,9.72,-9.54,0.30,-2.54,9.88
-2.28,-9.46,-0.09,9.73,-9.58,0.26,-2.59,9.93
-2.34,-9.57,-0.03,9.85,-9.54,0.28,-2.43,9.85
-2.35,-9.54,0.02,9.83,-9.57,0.29,-2.60,9.92
-2.43,-9.59,0.07,9.90,-9.51,0.27,-2.57,9.85
-2.42,-9.57,0.10,9.87,-9.50,0.28,-2.51,9.83
-2.38,-9.48,0.07,9.77,-9.52,0.28,-2.48,9.84
-2.36,-9.47,-0.02,9.76,-9.51,0.29,-2.53,9.84
-2.41,-9.51,-0.01,9.81,-9.52,0.31,-2.53,9.86
-2.37,-9.52,-0.01,9.82,-9.54,0.30,-2.51,9.87
-2.34,-9.57,0.03,9.85,-9.56,0.30,-2.51,9.89
-2.28,-9.53,0.06,9.80,-9.56,0.29,-2.51,9.89
-2.32,-9.57,0.07,9.84,-9.56,0.29,-2.50,9.88
-2.33,-9.53,0.07,9.81,-9.52,0.30,-2.49,9.85
-2.39,-9.54,0.10,9.84,-9.53,0.28,-2.51,9.86
-2.37,-9.53,0.09,9.82,-9.49,0.28,-2.49,9.82
-2.35,-9.51,0.07,9.79,-9.51,0.30,-2.46,9.82
-2.34,-9.49,0.03,9.78,-9.52,0.28,-2.47,9.83
-2.33,-9.52,0.07,9.80,-9.54,0.28,-2.47,9.86
-2.32,-9.52,0.07,9.80,-9.52,0.27,-2.45,9.84
-2.33,-9.53,0.04,9.81,-9.56,0.31,-2.45,9.88
-2.34,-9.54,0.06,9.82,-9.56,0.28,-2.51,9.89
-2.33,-9.55,0.03,9.83,-9.53,0.28,-2.47,9.85
-2.37,-9.56,0.04,9.85,-9.57,0.28,-2.47,9.89
-2.36,-9.56,0.07,9.85,-9.57,0.30,-2.47,9.89
-2.36,-9.53,0.02,9.82,-9.57,0.30,-2.45,9.89
-2.31,-9.57,0.09,9.84,-9.62,0.28,-2.49,9.94
-2.32,-9.54,0.02,9.82,-9.54,0.32,-2.47,9.86
-2.38,-9.60,0.10,9.89,-9.58,0.28,-2.54,9.91
-2.39,-9.58,0.13,9.87,-9.59,0.27,-2.47,9.90
-2.35,-9.52,0.13,9.80,-9.54,0.29,-2.49,9.87
-2.32,-9.51,0.04,9.79,-9.55,0.24,-2.52,9.88
-2.36,-9.53,0.06,9.82,-9.51,0.28,-2.53,9.85
-2.38,-9.53,0.08,9.82,-9.51,0.30,-2.53,9.85
-2.37,-9.55,0.06,9.84,-9.55,0.30,-2.53,9.89
-2.32,-9.54,0.03,9.82,-9.53,0.27,-2.49,9.85
-2.32,-9.54,0.05,9.81,-9.51,0.27,-2.49,9.83
-2.34,-9.54,0.07,9.82,-9.54,0.28,-2.53,9.88
-2.31,-9.56,0.08,9.83,-9.55,0.27,-2.53,9.88
-2.33,-9.60,0.09,9.88,-9.54,0.28,-2.54,9.87
-2.34,-9.55,0.11,9.83,-9.53,0.28,-2.53,9.87
-2.34,-9.52,0.06,9.80,-9.52,0.26,-2.53,9.86
-2.34,-9.53,0.15,9.81,-9.52,0.27,-2.55,9.85
-2.33,-9.56,0.16,9.84,-9.52,0.26,-2.57,9.86
-2.32,-9.53,0.12,9.81,-9.53,0.26,-2.56,9.87
-2.32,-9.54,0.18,9.82,-9.49,0.26,-2.57,9.84
-2.33,-9.54,0.14,9.82,-9.52,0.24,-2.52,9.85
-2.31,-9.52,0.08,9.80,-9.53,0.26,-2.53,9.87
-2.29,-9.54,0.19,9.81,-9.52,0.26,-2.54,9.86
-2.36,-9.56,0.22,9.85,-9.53,0.26,-2.54,9.86
-2.34,-9.54,0.18,9.83,-9.54,0.27,-2.55,9.87
-2.33,-9.56,0.24,9.85,-9.54,0.27,-2.58,9.88
-2.35,-9.54,0.16,9.82,-9.52,0.27,-2.57,9.87
-2.35,-9.54,0.20,9.82,-9.53,0.25,-2.57,9.87
-2.32,-9.53,0.19,9.81,-9.55,0.25,-2.59,9.90
-2.33,-9.54,0.20,9.82,-9.49,0.28,-2.55,9.83
-2.34,-9.54,0.12,9.82,-9.49,0.28,-2.59,9.84
-2.37,-9.49,0.21,9.78,-9.50,0.27,-2.57,9.84
-2.35,-9.49,0.17,9.78,-9.50,0.27,-2.60,9.85
-2.33,-9.42,0.15,9.71,-9.52,0.26,-2.55,9.86
-2.35,-9.55,0.26,9.84,-9.53,0.26,-2.57,9.87
-2.32,-9.55,0.23,9.83,-9.52,0.26,-2.60,9.87
-2.34,-9.54,0.20,9.83,-9.52,0.25,-2.57,9.87
-2.32,-9.51,0.18,9.79,-9.56,0.28,-2.58,9.90
-2.35,-9.55,0.14,9.84,-9.55,0.26,-2.59,9.90
-2.36,-9.55,0.18,9.83,-9.54,0.28,-2.59,9.89
-2.40,-9.54,0.21,9.84,-9.54,0.27,-2.58,9.88
-2.38,-9.55,0.18,9.85,-9.52,0.27,-2.58,9.87
-2.34,-9.52,0.08,9.80,-9.54,0.31,-2.60,9.90
-2.35,-9.53,0.21,9.82,-9.51,0.28,-2.59,9.86
-2.41,-9.54,0.32,9.85,-9.51,0.26,-2.59,9.86
-2.33,-9.55,0.25,9.84,-9.53,0.24,-2.60,9.88
-2.31,-9.53,0.25,9.81,-9.51,0.25,-2.60,9.87
-2.37,-9.53,0.22,9.82,-9.51,0.26,-2.59,9.86
-2.33,-9.55,0.28,9.83,-9.49,0.27,-2.62,9.85
-2.34,-9.49,0.14,9.77,-9.50,0.28,-2.59,9.85
-2.34,-9.50,0.26,9.79,-9.51,0.28,-2.60,9.86
-2.36,-9.67,0.36,9.96,-9.46,0.26,-2.60,9.82
-2.33,-9.55,0.38,9.84,-9.50,0.26,-2.58,9.85
-2.39,-9.55,0.39,9.86,-9.52,0.26,-2.59,9.87
-2.42,-9.58,0.35,9.89,-9.49,0.25,-2.60,9.85
-2.40,-9.61,0.60,9.92,-9.52,0.26,-2.52,9.85
-2.34,-9.44,0.36,9.73,-9.45,0.24,-2.58,9.80
-2.30,-9.38,0.20,9.66,-9.52,0.27,-2.68,9.90
-2.34,-9.60,0.37,9.89,-9.49,0.22,-2.51,9.82
-2.24,-9.53,0.25,9.80,-9.54,0.25,-2.65,9.91
-2.32,-9.52,0.12,9.80,-9.43,0.20,-2.67,9.80
-2.45,-9.59,0.71,9.92,-9.46,0.24,-2.67,9.83
-2.40,-9.42,0.32,9.72,-9.51,0.29,-2.62,9.87
-2.39,-9.49,0.34,9.79,-9.52,0.29,-2.54,9.86
-2.43,-9.68,0.28,9.98,-9.53,0.29,-2.64,9.89
-2.40,-9.64,0.26,9.93,-9.56,0.27,-2.61,9.91
-2.39,-9.66,0.37,9.95,-9.59,0.29,-2.67,9.96
-2.34,-9.52,0.26,9.81,-9.57,0.25,-2.65,9.93
-2.36,-9.64,0.40,9.93,-9.55,0.24,-2.63,9.91
-2.31,-9.54,0.17,9.81,-9.51,0.24,-2.67,9.88
-2.31,-9.50,0.25,9.78,-9.47,0.25,-2.63,9.83
-2.37,-9.53,0.23,9.82,-9.45,0.25,-2.66,9.82
-2.35,-9.51,0.36,9.80,-9.43,0.26,-2.61,9.78
-2.34,-9.50,0.27,9.79,-9.50,0.24,-2.63,9.86
-2.31,-9.49,0.14,9.77,-9.48,0.24,-2.61,9.83
-2.32,-9.52,0.20,9.80,-9.46,0.22,-2.62,9.82
-2.31,-9.50,0.35,9.78,-9.49,0.22,-2.64,9.86
-2.32,-9.49,0.39,9.78,-9.52,0.23,-2.65,9.89
-2.33,-9.55,0.39,9.84,-9.53,0.26,-2.66,9.90
-2.36,-9.56,0.35,9.86,-9.52,0.26,-2.67,9.89
-2.37,-9.56,0.17,9.85,-9.52,0.25,-2.67,9.89
-2.28,-9.57,0.20,9.84,-9.54,0.25,-2.66,9.91
-2.32,-9.57,0.30,9.85,-9.51,0.25,-2.56,9.85
-2.39,-9.58,0.52,9.88,-9.55,0.28,-2.87,9.97
-2.40,-9.56,0.51,9.87,-9.52,0.23,-2.65,9.88
-2.30,-9.46,0.23,9.74,-9.52,0.22,-2.68,9.89
-2.35,-9.56,0.22,9.85,-9.48,0.22,-2.65,9.85
-2.38,-9.54,0.41,9.84,-9.48,0.26,-2.67,9.86
-2.32,-9.46,0.18,9.74,-9.46,0.24,-2.67,9.83
-2.32,-9.44,0.39,9.73,-9.46,0.23,-2.68,9.83
-2.34,-9.59,0.42,9.88,-9.50,0.25,-2.62,9.86
-2.31,-9.56,0.23,9.84,-9.50,0.22,-2.68,9.87
-2.33,-9.59,0.40,9.87,-9.52,0.23,-2.69,9.90
-2.32,-9.49,0.13,9.77,-9.46,0.20,-2.67,9.84
-2.32,-9.54,0.33,9.83,-9.46,0.22,-2.69,9.83
-2.33,-9.54,0.44,9.83,-9.47,0.21,-2.68,9.84
-2.33,-9.56,0.47,9.85,-9.48,0.22,-2.68,9.85
-2.29,-9.49,0.31,9.77,-9.48,0.21,-2.66,9.85
-2.33,-9.51,0.38,9.80,-9.48,0.24,-2.70,9.86
-2.33,-9.47,0.21,9.76,-9.46,0.20,-2.69,9.84
-2.33,-9.49,0.23,9.77,-9.46,0.22,-2.68,9.83
-2.31,-9.50,0.28,9.79,-9.50,0.22,-2.66,9.87
-2.32,-9.49,0.29,9.78,-9.47,0.18,-2.66,9.84
-2.38,-9.58,0.35,9.88,-9.48,0.22,-2.68,9.85
-2.33,-9.57,0.28,9.85,-9.48,0.23,-2.67,9.85
-2.33,-9.48,0.09,9.77,-9.48,0.19,-2.71,9.86
-2.33,-9.53,0.39,9.82,-9.46,0.22,-2.72,9.85
-2.34,-9.51,0.44,9.80,-9.48,0.23,-2.72,9.86
-2.32,-9.48,0.38,9.77,-9.44,0.22,-2.70,9.82
-2.30,-9.48,0.37,9.76,-9.45,0.24,-2.69,9.83
-2.31,-9.48,0.36,9.77,-9.43,0.21,-2.68,9.81
-2.33,-9.47,0.36,9.76,-9.48,0.20,-2.66,9.84
-2.33,-9.49,0.33,9.78,-9.45,0.21,-2.68,9.82
-2.34,-9.51,0.33,9.80,-9.49,0.19,-2.68,9.86
-2.35,-9.52,0.31,9.81,-9.45,0.20,-2.68,9.82
-2.31,-9.50,0.25,9.78,-9.49,0.20,-2.67,9.86
-2.31,-9.53,0.28,9.81,-9.48,0.22,-2.69,9.86
-2.34,-9.53,0.28,9.82,-9.48,0.23,-2.68,9.85
-2.36,-9.53,0.32,9.82,-9.49,0.22,-2.69,9.87
-2.36,-9.53,0.33,9.82,-9.46,0.22,-2.69,9.84
-2.35,-9.50,0.46,9.80,-9.46,0.23,-2.69,9.84
-2.35,-9.52,0.33,9.81,-9.48,0.24,-2.70,9.86
-2.36,-9.52,0.30,9.82,-9.48,0.26,-2.67,9.85
-2.40,-9.55,0.39,9.86,-9.51,0.24,-2.70,9.89
-2.36,-9.55,0.27,9.84,-9.48,0.23,-2.69,9.86
-2.31,-9.50,0.23,9.78,-9.49,0.22,-2.68,9.86
-2.35,-9.53,0.26,9.82,-9.50,0.25,-2.71,9.88
-2.38,-9.56,0.25,9.85,-9.49,0.23,-2.72,9.88
-2.41,-9.54,0.35,9.85,-9.49,0.22,-2.75,9.89
-2.39,-9.53,0.35,9.84,-9.44,0.21,-2.62,9.80
-2.29,-9.48,0.37,9.76,-9.48,0.20,-2.65,9.84
-2.23,-9.43,0.09,9.69,-9.51,0.21,-2.78,9.91
-2.26,-9.55,0.06,9.82,-9.52,0.18,-2.66,9.88
-2.28,-9.52,0.18,9.79,-9.49,0.22,-2.72,9.87
-2.40,-9.57,0.33,9.87,-9.43,0.22,-2.70,9.82
-2.46,-9.50,0.35,9.82,-9.42,0.26,-2.67,9.80
-2.41,-9.45,0.28,9.75,-9.48,0.25,-2.63,9.84
-2.37,-9.47,0.17,9.77,-9.48,0.27,-2.65,9.85
-2.36,-9.55,0.19,9.84,-9.54,0.24,-2.68,9.91
-2.32,-9.60,0.25,9.88,-9.57,0.22,-2.66,9.94
-2.29,-9.58,0.25,9.86,-9.57,0.21,-2.68,9.94
-2.28,-9.56,0.21,9.83,-9.53,0.21,-2.67,9.90
-2.30,-9.59,0.22,9.86,-9.49,0.22,-2.66,9.86
-2.33,-9.54,0.26,9.83,-9.48,0.23,-2.67,9.85
-2.36,-9.53,0.27,9.82,-9.48,0.21,-2.63,9.84
-2.36,-9.47,0.27,9.77,-9.47,0.21,-2.63,9.83
-2.35,-9.49,0.25,9.78,-9.46,0.21,-2.64,9.83
-2.33,-9.51,0.25,9.79,-9.47,0.22,-2.63,9.83
-2.32,-9.53,0.39,9.82,-9.45,0.21,-2.64,9.82
-2.32,-9.50,0.23,9.79,-9.52,0.21,-2.65,9.88
-2.32,-9.49,0.24,9.77,-9.49,0.20,-2.67,9.86
-2.34,-9.52,0.19,9.80,-9.48,0.23,-2.67,9.85
-2.37,-9.52,0.23,9.81,-9.48,0.22,-2.69,9.86
-2.37,-9.52,0.25,9.82,-9.52,0.23,-2.67,9.89
-2.33,-9.51,0.23,9.80,-9.51,0.23,-2.67,9.88
-2.30,-9.56,0.20,9.83,-9.51,0.24,-2.59,9.86
-2.34,-9.52,0.18,9.80,-9.53,0.23,-2.66,9.90
-2.33,-9.60,0.30,9.88,-9.50,0.21,-2.65,9.86
-2.31,-9.51,0.28,9.79,-9.52,0.22,-2.65,9.88
-2.33,-9.49,0.24,9.77,-9.50,0.21,-2.56,9.85
-2.35,-9.54,0.19,9.83,-9.51,0.22,-2.67,9.88
-2.38,-9.54,0.30,9.83,-9.52,0.24,-2.65,9.89
-2.37,-9.51,0.24,9.80,-9.48,0.25,-2.62,9.84
-2.32,-9.53,0.16,9.81,-9.50,0.23,-2.60,9.85
-2.35,-9.55,0.18,9.84,-9.52,0.24,-2.63,9.88
-2.33,-9.57,0.22,9.85,-9.52,0.23,-2.66,9.88
-2.34,-9.55,0.23,9.84,-9.49,0.22,-2.64,9.85
-2.34,-9.54,0.25,9.82,-9.49,0.22,-2.66,9.86
-2.31,-9.52,0.20,9.79,-9.48,0.23,-2.64,9.84
-2.34,-9.53,0.26,9.81,-9.51,0.25,-2.65,9.87
-2.30,-9.52,0.22,9.79,-9.48,0.23,-2.64,9.84
-2.34,-9.50,0.20,9.79,-9.47,0.20,-2.66,9.84
-2.31,-9.53,0.25,9.81,-9.48,0.20,-2.64,9.84
-2.29,-9.51,0.16,9.78,-9.50,0.23,-2.63,9.86
-2.32,-9.53,0.23,9.82,-9.51,0.20,-2.63,9.87
-2.32,-9.53,0.16,9.81,-9.52,0.24,-2.63,9.88
-2.37,-9.58,0.31,9.87,-9.48,0.21,-2.65,9.84
-2.36,-9.53,0.23,9.82,-9.51,0.23,-2.65,9.87
-2.39,-9.54,0.25,9.84,-9.52,0.24,-2.63,9.88
-2.34,-9.53,0.18,9.81,-9.49,0.23,-2.63,9.85
-2.35,-9.54,0.26,9.83,-9.53,0.22,-2.63,9.89
-2.35,-9.57,0.24,9.85,-9.53,0.23,-2.65,9.89
-2.32,-9.55,0.23,9.83,-9.49,0.22,-2.65,9.85
-2.36,-9.52,0.22,9.81,-9.51,0.23,-2.64,9.87
-2.34,-9.50,0.22,9.78,-9.48,0.24,-2.65,9.85
-2.35,-9.52,0.33,9.81,-9.49,0.21,-2.63,9.85
-2.32,-9.52,0.21,9.80,-9.49,0.22,-2.62,9.85
-2.33,-9.52,0.15,9.80,-9.48,0.20,-2.64,9.84
-2.33,-9.53,0.24,9.81,-9.52,0.23,-2.65,9.89
-2.34,-9.50,0.16,9.79,-9.49,0.22,-2.62,9.85
-2.37,-9.56,0.49,9.86,-9.52,0.23,-2.65,9.89
-2.37,-9.54,0.22,9.83,-9.53,0.22,-2.63,9.89
-2.33,-9.52,0.25,9.80,-9.51,0.24,-2.61,9.87
-2.32,-9.49,0.20,9.77,-9.48,0.23,-2.63,9.84
-2.33,-9.54,0.27,9.83,-9.53,0.24,-2.66,9.89
-2.32,-9.53,0.25,9.81,-9.52,0.26,-2.65,9.89
-2.37,-9.55,0.26,9.85,-9.50,0.26,-2.64,9.86
-2.32,-9.51,0.18,9.79,-9.51,0.26,-2.64,9.88
-2.34,-9.55,0.21,9.84,-9.52,0.24,-2.66,9.89
-2.43,-9.58,0.25,9.89,-9.52,0.25,-2.73,9.91
-2.40,-9.58,0.38,9.88,-9.52,0.24,-2.70,9.90
-2.33,-9.45,0.19,9.73,-9.46,0.20,-2.54,9.80
-2.25,-9.46,0.11,9.73,-9.54,0.23,-2.68,9.91
-2.29,-9.55,0.22,9.82,-9.49,0.17,-2.58,9.83
-2.26,-9.58,0.40,9.85,-9.56,0.19,-2.58,9.90
-2.32,-9.58,0.28,9.86,-9.46,0.20,-2.75,9.85
-2.36,-9.51,0.31,9.80,-9.45,0.23,-2.64,9.82
-2.36,-9.46,0.27,9.75,-9.47,0.25,-2.59,9.82
-2.35,-9.41,0.18,9.70,-9.45,0.25,-2.57,9.80
-2.39,-9.51,0.23,9.81,-9.50,0.26,-2.64,9.86
-2.37,-9.51,0.20,9.81,-9.51,0.27,-2.61,9.87
-2.32,-9.58,0.17,9.86,-9.56,0.25,-2.60,9.91
-2.32,-9.56,0.17,9.84,-9.57,0.24,-2.61,9.92
-2.31,-9.59,0.21,9.86,-9.57,0.24,-2.61,9.93
-2.34,-9.55,0.23,9.84,-9.56,0.24,-2.58,9.90
-2.36,-9.53,0.24,9.82,-9.51,0.25,-2.61,9.86
-2.36,-9.51,0.23,9.80,-9.49,0.26,-2.59,9.84
-2.38,-9.52,0.24,9.81,-9.48,0.25,-2.58,9.82
-2.37,-9.49,0.22,9.78,-9.46,0.27,-2.57,9.80
-2.38,-9.49,0.24,9.78,-9.49,0.26,-2.59,9.85
-2.33,-9.45,0.18,9.74,-9.49,0.23,-2.58,9.84
-2.32,-9.48,0.28,9.76,-9.49,0.22,-2.57,9.83
-2.33,-9.48,0.21,9.76,-9.50,0.24,-2.59,9.85
-2.32,-9.51,0.11,9.78,-9.51,0.24,-2.60,9.86
-2.36,-9.54,0.21,9.83,-9.50,0.24,-2.56,9.85
-2.35,-9.53,0.17,9.82,-9.54,0.24,-2.59,9.89
-2.38,-9.56,0.19,9.86,-9.51,0.27,-2.46,9.82
-2.40,-9.63,0.20,9.93,-9.56,0.25,-2.69,9.94
-2.32,-9.53,0.17,9.81,-9.54,0.27,-2.52,9.88
-2.32,-9.52,0.17,9.80,-9.53,0.27,-2.55,9.87
-2.41,-9.57,0.26,9.87,-9.54,0.25,-2.61,9.90
-2.36,-9.57,0.35,9.86,-9.56,0.24,-2.54,9.89
-2.32,-9.52,0.30,9.80,-9.49,0.21,-2.54,9.83
-2.32,-9.49,0.22,9.77,-9.50,0.23,-2.57,9.84
-2.33,-9.45,0.17,9.73,-9.49,0.24,-2.59,9.84
-2.37,-9.55,0.25,9.84,-9.49,0.27,-2.58,9.84
-2.31,-9.52,0.16,9.80,-9.55,0.28,-2.54,9.89
-2.34,-9.51,0.16,9.79,-9.52,0.27,-2.54,9.86
-2.35,-9.53,0.15,9.82,-9.54,0.27,-2.57,9.88
-2.33,-9.56,0.14,9.84,-9.58,0.26,-2.55,9.91
-2.34,-9.56,0.17,9.84,-9.55,0.29,-2.57,9.89
-2.32,-9.58,0.15,9.86,-9.54,0.26,-2.59,9.88
-2.34,-9.55,0.16,9.83,-9.52,0.25,-2.59,9.87
-2.38,-9.54,0.22,9.83,-9.51,0.23,-2.58,9.86
-2.33,-9.53,0.19,9.81,-9.53,0.22,-2.58,9.87
-2.33,-9.52,0.19,9.80,-9.49,0.24,-2.55,9.83
-2.32,-9.53,0.16,9.81,-9.51,0.23,-2.54,9.84
-2.35,-9.52,0.17,9.81,-9.51,0.23,-2.54,9.84
-2.31,-9.49,0.16,9.77,-9.54,0.21,-2.55,9.88
-2.34,-9.53,0.18,9.81,-9.54,0.25,-2.55,9.88
-2.33,-9.54,0.17,9.82,-9.54,0.24,-2.54,9.88
-2.36,-9.53,0.18,9.82,-9.53,0.26,-2.55,9.87
-2.34,-9.53,0.19,9.82,-9.53,0.25,-2.53,9.86
-2.33,-9.52,0.18,9.80,-9.53,0.27,-2.53,9.86
-2.32,-9.55,0.34,9.84,-9.52,0.26,-2.55,9.86
-2.34,-9.53,0.18,9.82,-9.54,0.24,-2.52,9.87
-2.34,-9.51,0.18,9.80,-9.52,0.25,-2.54,9.85
-2.35,-9.52,0.18,9.80,-9.54,0.24,-2.49,9.86
-2.35,-9.48,0.15,9.77,-9.53,0.26,-2.59,9.88
-2.34,-9.52,0.14,9.81,-9.51,0.25,-2.53,9.84
-2.33,-9.51,0.17,9.79,-9.52,0.25,-2.53,9.85
-2.36,-9.52,0.17,9.81,-9.52,0.24,-2.57,9.86
-2.35,-9.54,0.14,9.82,-9.54,0.28,-2.57,9.89
-2.35,-9.51,0.17,9.80,-9.53,0.28,-2.52,9.86
-2.35,-9.51,0.14,9.80,-9.55,0.24,-2.51,9.88
-2.37,-9.54,0.15,9.83,-9.53,0.27,-2.53,9.86
-2.33,-9.55,0.14,9.83,-9.55,0.27,-2.54,9.89
-2.35,-9.54,0.13,9.82,-9.54,0.29,-2.54,9.87
-2.37,-9.53,0.13,9.82,-9.56,0.25,-2.55,9.90
-2.35,-9.53,0.16,9.82,-9.54,0.26,-2.53,9.88
-2.35,-9.55,0.10,9.84,-9.57,0.25,-2.54,9.90
-2.35,-9.54,0.12,9.82,-9.56,0.25,-2.50,9.88
-2.34,-9.54,0.11,9.82,-9.52,0.28,-2.54,9.86
-2.34,-9.52,0.14,9.81,-9.53,0.26,-2.51,9.86
-2.35,-9.52,0.16,9.81,-9.53,0.26,-2.52,9.86
-2.36,-9.52,0.12,9.81,-9.50,0.26,-2.54,9.84
-2.36,-9.54,0.15,9.83,-9.54,0.27,-2.54,9.88
-2.31,-9.45,0.12,9.73,-9.52,0.24,-2.56,9.86
-2.33,-9.52,0.12,9.80,-9.54,0.24,-2.51,9.87
-2.31,-9.50,0.10,9.77,-9.53,0.26,-2.51,9.86
-2.35,-9.52,0.04,9.81,-9.54,0.25,-2.58,9.89
-2.43,-9.61,0.18,9.91,-9.57,0.28,-2.62,9.93
-2.38,-9.49,0.21,9.79,-9.53,0.25,-2.45,9.84
-2.32,-9.35,0.05,9.64,-9.51,0.24,-2.48,9.83
-2.26,-9.54,0.04,9.81,-9.58,0.22,-2.52,9.91
-2.33,-9.52,0.07,9.81,-9.48,0.27,-2.41,9.78
-2.31,-9.54,0.04,9.82,-9.58,0.29,-2.61,9.94
-2.42,-9.58,0.23,9.89,-9.54,0.25,-2.60,9.89
-2.38,-9.53,0.22,9.82,-9.54,0.27,-2.52,9.87
-2.38,-9.47,0.14,9.76,-9.51,0.26,-2.46,9.82
-2.36,-9.45,0.07,9.74,-9.51,0.27,-2.55,9.85
-2.35,-9.51,0.04,9.79,-9.50,0.32,-2.58,9.85
-2.41,-9.52,0.06,9.83,-9.53,0.32,-2.54,9.87
-2.39,-9.74,0.16,10.03,-9.59,0.29,-2.49,9.91
-2.35,-9.54,0.06,9.83,-9.58,0.27,-2.49,9.90
-2.34,-9.54,0.10,9.83,-9.56,0.24,-2.49,9.89
-2.36,-9.53,0.07,9.81,-9.56,0.25,-2.50,9.88
-2.39,-9.54,0.11,9.84,-9.55,0.28,-2.50,9.88
-2.39,-9.53,0.08,9.83,-9.54,0.29,-2.50,9.87
-2.40,-9.53,0.07,9.83,-9.54,0.28,-2.47,9.86
-2.37,-9.55,0.07,9.84,-9.53,0.30,-2.47,9.85
-2.37,-9.51,0.06,9.80,-9.54,0.27,-2.49,9.86
-2.34,-9.51,0.06,9.79,-9.53,0.26,-2.50,9.86
-2.34,-9.51,0.09,9.80,-9.54,0.25,-2.50,9.86
-2.35,-9.50,0.08,9.79,-9.50,0.27,-2.49,9.83
-2.36,-9.52,0.07,9.81,-9.53,0.28,-2.50,9.86
-2.36,-9.50,0.05,9.78,-9.53,0.28,-2.50,9.86
-2.38,-9.52,0.04,9.81,-9.55,0.30,-2.49,9.88
-2.40,-9.49,0.01,9.79,-9.54,0.29,-2.50,9.87
-2.40,-9.52,0.02,9.82,-9.57,0.30,-2.48,9.89
-2.34,-9.53,0.06,9.81,-9.57,0.30,-2.47,9.89
-2.39,-9.52,0.00,9.81,-9.53,0.31,-2.44,9.85
-2.38,-9.56,0.15,9.86,-9.56,0.31,-2.57,9.91
-2.38,-9.56,0.17,9.85,-9.57,0.30,-2.46,9.89
-2.35,-9.49,0.09,9.78,-9.50,0.27,-2.42,9.81
-2.36,-9.50,0.08,9.79,-9.52,0.26,-2.50,9.85
-2.37,-9.49,0.10,9.78,-9.54,0.28,-2.53,9.87
-2.38,-9.49,0.04,9.79,-9.52,0.28,-2.53,9.86
-2.37,-9.52,0.08,9.81,-9.54,0.30,-2.49,9.87
-2.32,-9.48,0.08,9.76,-9.51,0.26,-2.48,9.83
-2.34,-9.51,0.09,9.79,-9.52,0.25,-2.47,9.84
-2.33,-9.54,0.09,9.82,-9.52,0.27,-2.49,9.84
-2.37,-9.52,0.07,9.82,-9.54,0.28,-2.48,9.86
-2.34,-9.55,0.07,9.84,-9.53,0.28,-2.50,9.86
-2.36,-9.50,0.07,9.79,-9.54,0.27,-2.52,9.88
-2.34,-9.50,0.09,9.79,-9.56,0.31,-2.50,9.89
-2.37,-9.53,0.11,9.82,-9.49,0.29,-2.52,9.83
-2.36,-9.52,0.11,9.81,-9.52,0.29,-2.54,9.86
-2.35,-9.51,0.09,9.79,-9.52,0.26,-2.51,9.85
-2.31,-9.51,0.07,9.78,-9.52,0.25,-2.49,9.85
-2.35,-9.55,0.08,9.83,-9.54,0.27,-2.52,9.87
-2.34,-9.52,0.11,9.80,-9.54,0.24,-2.50,9.87
-2.32,-9.51,0.10,9.78,-9.54,0.26,-2.48,9.87
-2.36,-9.54,0.10,9.83,-9.52,0.28,-2.46,9.84
-2.35,-9.53,0.07,9.82,-9.55,0.28,-2.48,9.87
-2.35,-9.54,0.06,9.82,-9.57,0.29,-2.47,9.89
-2.37,-9.56,0.06,9.85,-9.56,0.28,-2.50,9.89
-2.36,-9.53,0.05,9.82,-9.54,0.30,-2.50,9.87
-2.37,-9.53,0.05,9.82,-9.53,0.29,-2.49,9.86
-2.37,-9.54,0.06,9.83,-9.56,0.30,-2.50,9.88
-2.38,-9.51,0.09,9.80,-9.54,0.28,-2.51,9.86
-2.36,-9.52,0.07,9.81,-9.52,0.28,-2.51,9.85
-2.39,-9.51,0.05,9.81,-9.50,0.27,-2.54,9.84
-2.39,-9.49,0.08,9.79,-9.53,0.27,-2.52,9.86
-2.38,-9.50,0.08,9.80,-9.53,0.27,-2.51,9.85
-2.35,-9.51,0.06,9.79,-9.51,0.28,-2.50,9.84
-2.36,-9.53,0.06,9.81,-9.53,0.29,-2.48,9.85
-2.37,-9.52,0.04,9.81,-9.55,0.28,-2.47,9.87
-2.37,-9.53,0.07,9.82,-9.53,0.29,-2.54,9.87
-2.37,-9.53,0.08,9.82,-9.55,0.32,-2.61,9.91
-2.38,-9.54,0.05,9.83,-9.52,0.29,-2.47,9.84
-2.35,-9.55,0.05,9.83,-9.51,0.30,-2.55,9.85
-2.37,-9.54,0.08,9.83,-9.52,0.29,-2.45,9.84
-2.36,-9.53,0.11,9.82,-9.53,0.28,-2.53,9.86
-2.37,-9.54,0.06,9.83,-9.51,0.30,-2.49,9.84
-2.34,-9.51,0.07,9.79,-9.52,0.30,-2.50,9.85
-2.34,-9.52,0.05,9.80,-9.54,0.31,-2.48,9.86
-2.36,-9.52,0.05,9.80,-9.55,0.29,-2.51,9.88
-2.37,-9.51,0.06,9.80,-9.52,0.28,-2.49,9.85
-2.38,-9.53,0.09,9.83,-9.54,0.30,-2.48,9.86
-2.37,-9.56,0.06,9.85,-9.53,0.30,-2.46,9.84
-2.37,-9.54,0.04,9.83,-9.55,0.28,-2.46,9.87
-2.34,-9.56,0.04,9.84,-9.57,0.28,-2.49,9.90
-2.39,-9.53,0.08,9.83,-9.55,0.30,-2.50,9.87
-2.35,-9.55,0.08,9.84,-9.56,0.29,-2.48,9.88
-2.34,-9.50,0.03,9.79,-9.54,0.29,-2.52,9.88
-2.38,-9.51,0.06,9.81,-9.54,0.28,-2.52,9.88
-2.35,-9.54,0.06,9.83,-9.54,0.27,-2.51,9.87
-2.37,-9.52,0.09,9.81,-9.55,0.30,-2.52,9.88
-2.35,-9.54,0.09,9.83,-9.54,0.29,-2.54,9.87
-2.35,-9.53,0.08,9.81,-9.52,0.30,-2.53,9.86
-2.35,-9.51,0.09,9.80,-9.51,0.29,-2.52,9.84
-2.38,-9.56,0.10,9.85,-9.53,0.30,-2.51,9.86
-2.38,-9.52,0.05,9.82,-9.57,0.29,-2.54,9.91
-2.39,-9.56,0.06,9.85,-9.55,0.29,-2.55,9.89
-2.38,-9.56,0.06,9.85,-9.56,0.29,-2.55,9.90
-2.34,-9.53,0.07,9.81,-9.54,0.29,-2.51,9.87
-2.33,-9.53,0.10,9.81,-9.53,0.30,-2.53,9.86
-2.51,-9.61,0.19,9.93,-9.57,0.34,-2.60,9.93
-2.41,-9.55,0.28,9.85,-9.54,0.32,-2.49,9.86
-2.35,-9.44,0.14,9.73,-9.51,0.27,-2.42,9.81
-2.31,-9.41,0.07,9.69,-9.56,0.24,-2.67,9.93
-2.32,-9.57,0.08,9.85,-9.48,0.27,-2.34,9.77
-2.32,-9.54,-0.00,9.81,-9.55,0.28,-2.53,9.89
-2.40,-9.58,0.16,9.87,-9.56,0.29,-2.68,9.93
-2.41,-9.57,0.27,9.87,-9.53,0.27,-2.54,9.86
-2.36,-9.52,0.26,9.81,-9.51,0.26,-2.50,9.83
-2.35,-9.46,0.07,9.75,-9.50,0.27,-2.53,9.84
-2.38,-9.53,0.08,9.82,-9.51,0.30,-2.57,9.86
-2.43,-9.53,0.11,9.83,-9.54,0.34,-2.53,9.88
-2.40,-9.58,0.13,9.87,-9.58,0.33,-2.55,9.92
-2.36,-9.57,0.17,9.85,-9.55,0.31,-2.57,9.90
-2.36,-9.62,0.11,9.91,-9.60,0.29,-2.56,9.93
-2.36,-9.52,0.18,9.81,-9.54,0.28,-2.56,9.88
-2.37,-9.53,0.18,9.82,-9.51,0.28,-2.51,9.84
-2.40,-9.52,0.29,9.82,-9.50,0.28,-2.53,9.84
-2.34,-9.49,0.17,9.77,-9.49,0.29,-2.50,9.82
-2.37,-9.54,0.25,9.83,-9.50,0.27,-2.52,9.83
-2.34,-9.51,0.20,9.79,-9.48,0.27,-2.50,9.80
-2.34,-9.49,0.17,9.78,-9.51,0.27,-2.51,9.84
-2.33,-9.52,0.23,9.80,-9.53,0.24,-2.52,9.86
-2.33,-9.52,0.22,9.81,-9.51,0.27,-2.53,9.84
-2.34,-9.51,0.22,9.79,-9.52,0.24,-2.55,9.86
-2.34,-9.50,0.15,9.79,-9.49,0.28,-2.53,9.82
-2.34,-9.53,0.23,9.82,-9.53,0.25,-2.50,9.85
-2.35,-9.53,0.17,9.82,-9.55,0.28,-2.54,9.89
-2.40,-9.56,0.21,9.86,-9.55,0.27,-2.54,9.89
-2.33,-9.59,0.27,9.87,-9.57,0.27,-2.56,9.91
-2.42,-9.58,0.24,9.88,-9.53,0.29,-2.49,9.86
-2.41,-9.54,0.22,9.84,-9.59,0.33,-2.68,9.96
-2.44,-9.56,0.32,9.88,-9.51,0.28,-2.60,9.87
-2.35,-9.47,0.36,9.77,-9.51,0.27,-2.54,9.85
-2.36,-9.50,0.23,9.79,-9.49,0.25,-2.59,9.84
-2.36,-9.50,0.29,9.79,-9.47,0.27,-2.55,9.81
-2.35,-9.49,0.22,9.78,-9.49,0.27,-2.61,9.84
-2.33,-9.51,0.24,9.79,-9.48,0.26,-2.60,9.83
-2.33,-9.48,0.22,9.76,-9.51,0.27,-2.54,9.84
-2.33,-9.52,0.22,9.81,-9.53,0.25,-2.57,9.88
-2.32,-9.51,0.20,9.79,-9.53,0.23,-2.58,9.88
-2.34,-9.55,0.20,9.84,-9.50,0.23,-2.56,9.85
-2.35,-9.54,0.25,9.83,-9.52,0.23,-2.54,9.85
-2.37,-9.53,0.20,9.83,-9.51,0.24,-2.62,9.87
-2.34,-9.55,0.24,9.84,-9.52,0.23,-2.59,9.87
-2.37,-9.54,0.22,9.84,-9.52,0.26,-2.64,9.89
-2.34,-9.50,0.05,9.78,-9.50,0.27,-2.63,9.86
-2.32,-9.51,0.27,9.80,-9.49,0.24,-2.59,9.84
-2.36,-9.51,0.18,9.80,-9.47,0.26,-2.61,9.83
-2.37,-9.51,0.34,9.81,-9.50,0.22,-2.59,9.85
-2.37,-9.53,0.35,9.83,-9.52,0.24,-2.62,9.88
-2.34,-9.52,0.32,9.81,-9.49,0.26,-2.58,9.84
-2.36,-9.50,0.17,9.79,-9.51,0.25,-2.62,9.86
-2.38,-9.53,0.32,9.82,-9.49,0.27,-2.62,9.85
-2.36,-9.51,0.28,9.80,-9.51,0.28,-2.60,9.86
-2.36,-9.52,0.23,9.82,-9.49,0.26,-2.64,9.85
-2.38,-9.51,0.25,9.81,-9.49,0.24,-2.62,9.85
-2.34,-9.51,0.29,9.79,-9.52,0.25,-2.60,9.87
-2.36,-9.53,0.33,9.82,-9.52,0.25,-2.64,9.88
-2.37,-9.51,0.28,9.81,-9.50,0.23,-2.60,9.86
-2.35,-9.51,0.33,9.80,-9.49,0.23,-2.65,9.86
-2.33,-9.53,0.19,9.81,-9.50,0.26,-2.65,9.87
-2.34,-9.53,0.34,9.82,-9.51,0.25,-2.62,9.87
-2.37,-9.57,0.35,9.87,-9.48,0.26,-2.62,9.84
-2.37,-9.51,0.35,9.80,-9.49,0.25,-2.65,9.85
-2.32,-9.51,0.31,9.80,-9.48,0.25,-2.64,9.84
-2.34,-9.52,0.29,9.81,-9.48,0.23,-2.65,9.84
-2.34,-9.52,0.34,9.81,-9.51,0.24,-2.65,9.87
-2.35,-9.55,0.29,9.84,-9.52,0.26,-2.66,9.89
-2.41,-9.54,0.54,9.85,-9.49,0.26,-2.66,9.85
-2.40,-9.52,0.42,9.83,-9.51,0.25,-2.63,9.87
-2.37,-9.54,0.36,9.84,-9.54,0.26,-2.66,9.90
-2.36,-9.53,0.26,9.82,-9.53,0.26,-2.65,9.89
-2.37,-9.55,0.35,9.84,-9.51,0.24,-2.67,9.88
-2.37,-9.52,0.33,9.82,-9.49,0.24,-2.62,9.85
-2.40,-9.54,0.48,9.85,-9.45,0.22,-2.67,9.83
-2.32,-9.49,0.30,9.77,-9.49,0.22,-2.69,9.86
-2.34,-9.50,0.34,9.79,-9.48,0.27,-2.67,9.85
-2.33,-9.55,0.44,9.84,-9.47,0.23,-2.66,9.84
-2.34,-9.51,0.35,9.80,-9.48,0.24,-2.64,9.84
-2.35,-9.52,0.46,9.82,-9.49,0.23,-2.67,9.86
-2.38,-9.56,0.41,9.86,-9.48,0.24,-2.66,9.85
-2.35,-9.48,0.34,9.78,-9.49,0.26,-2.64,9.85
-2.36,-9.48,0.30,9.78,-9.49,0.22,-2.67,9.86
-2.33,-9.51,0.19,9.79,-9.49,0.24,-2.65,9.86
-2.35,-9.51,0.29,9.80,-9.46,0.24,-2.68,9.84
-2.36,-9.52,0.46,9.82,-9.50,0.26,-2.61,9.85
-2.36,-9.50,0.34,9.80,-9.51,0.25,-2.65,9.87
-2.43,-9.54,0.29,9.85,-9.48,0.25,-2.69,9.86
-2.43,-9.53,0.36,9.84,-9.50,0.28,-2.71,9.89
-2.41,-9.48,0.43,9.79,-9.49,0.25,-2.63,9.85
-2.31,-9.44,0.36,9.72,-9.47,0.25,-2.66,9.84
-2.32,-9.47,0.29,9.76,-9.47,0.23,-2.66,9.84
-2.27,-9.54,0.24,9.81,-9.48,0.20,-2.61,9.83
-2.30,-9.50,0.28,9.78,-9.53,0.22,-2.68,9.90
-2.36,-9.52,0.36,9.82,-9.44,0.21,-2.75,9.83
-2.44,-9.50,0.42,9.82,-9.46,0.26,-2.63,9.82
-2.45,-9.47,0.34,9.79,-9.46,0.29,-2.63,9.82
-2.42,-9.47,0.24,9.78,-9.51,0.27,-2.65,9.88
-2.39,-9.55,0.21,9.85,-9.53,0.28,-2.66,9.90
-2.39,-9.58,0.27,9.88,-9.57,0.26,-2.63,9.93
-2.34,-9.57,0.31,9.86,-9.53,0.23,-2.65,9.90
-2.33,-9.56,0.28,9.85,-9.50,0.27,-2.66,9.87
-2.33,-9.54,0.32,9.82,-9.49,0.21,-2.65,9.85
-2.34,-9.55,0.32,9.83,-9.51,0.25,-2.65,9.88
-2.33,-9.49,0.32,9.78,-9.46,0.25,-2.62,9.82
-2.37,-9.48,0.30,9.77,-9.48,0.23,-2.60,9.83
-2.33,-9.48,0.29,9.77,-9.47,0.23,-2.62,9.83
-2.34,-9.50,0.28,9.79,-9.49,0.22,-2.60,9.85
-2.34,-9.50,0.38,9.79,-9.48,0.22,-2.62,9.84
-2.33,-9.52,0.28,9.80,-9.47,0.22,-2.65,9.84
-2.33,-9.54,0.35,9.82,-9.49,0.22,-2.65,9.86
-2.34,-9.52,0.25,9.81,-9.48,0.22,-2.65,9.85
-2.37,-9.53,0.32,9.82,-9.49,0.26,-2.65,9.86
-2.39,-9.53,0.24,9.83,-9.50,0.26,-2.64,9.86
-2.40,-9.54,0.29,9.84,-9.50,0.26,-2.65,9.86
-2.37,-9.55,0.22,9.84,-9.54,0.24,-2.64,9.90
-2.28,-9.56,0.17,9.83,-9.52,0.27,-2.62,9.88
-2.37,-9.56,0.13,9.85,-9.55,0.28,-2.75,9.94
-2.38,-9.60,0.23,9.89,-9.49,0.24,-2.65,9.85
-2.33,-9.52,0.27,9.81,-9.54,0.24,-2.65,9.91
-2.36,-9.51,0.27,9.80,-9.50,0.19,-2.60,9.85
-2.37,-9.52,0.36,9.82,-9.49,0.23,-2.66,9.86
-2.38,-9.48,0.35,9.78,-9.47,0.22,-2.62,9.83
-2.34,-9.48,0.31,9.77,-9.48,0.23,-2.60,9.83
-2.32,-9.52,0.22,9.80,-9.49,0.21,-2.56,9.83
-2.30,-9.56,0.25,9.83,-9.53,0.21,-2.61,9.89
-2.30,-9.55,0.23,9.83,-9.53,0.20,-2.62,9.88
-2.33,-9.54,0.23,9.82,-9.51,0.22,-2.63,9.87
-2.30,-9.54,0.21,9.81,-9.49,0.21,-2.63,9.86
-2.34,-9.55,0.27,9.83,-9.51,0.22,-2.67,9.88
-2.34,-9.54,0.23,9.83,-9.49,0.24,-2.63,9.85
-2.32,-9.55,0.23,9.83,-9.49,0.23,-2.62,9.84
-2.35,-9.52,0.21,9.81,-9.52,0.25,-2.65,9.88
-2.33,-9.52,0.28,9.80,-9.50,0.24,-2.63,9.86
-2.33,-9.52,0.22,9.80,-9.50,0.23,-2.63,9.86
-2.31,-9.52,0.13,9.80,-9.52,0.23,-2.61,9.87
-2.36,-9.51,0.22,9.80,-9.50,0.24,-2.61,9.86
-2.36,-9.52,0.20,9.81,-9.51,0.24,-2.63,9.87
-2.35,-9.55,0.21,9.84,-9.50,0.22,-2.58,9.85
-2.37,-9.52,0.24,9.81,-9.48,0.24,-2.62,9.83
-2.37,-9.49,0.20,9.78,-9.48,0.23,-2.63,9.84
-2.35,-9.53,0.23,9.82,-9.52,0.24,-2.60,9.87
-2.33,-9.52,0.22,9.81,-9.51,0.27,-2.60,9.86
-2.35,-9.52,0.22,9.81,-9.49,0.25,-2.60,9.85
-2.37,-9.51,0.28,9.81,-9.49,0.24,-2.60,9.84
-2.37,-9.54,0.22,9.83,-9.49,0.25,-2.59,9.84
-2.33,-9.52,0.25,9.80,-9.49,0.27,-2.58,9.84
-2.35,-9.54,0.23,9.83,-9.49,0.24,-2.57,9.84
-2.34,-9.51,0.22,9.80,-9.52,0.25,-2.58,9.87
-2.34,-9.56,0.26,9.84,-9.50,0.24,-2.59,9.85
-2.37,-9.53,0.26,9.83,-9.51,0.24,-2.58,9.86
-2.36,-9.53,0.21,9.82,-9.52,0.24,-2.60,9.88
-2.37,-9.53,0.22,9.83,-9.51,0.22,-2.58,9.86
-2.35,-9.49,0.09,9.78,-9.52,0.27,-2.57,9.86
-2.38,-9.54,0.19,9.83,-9.52,0.26,-2.60,9.87
-2.37,-9.55,0.22,9.84,-9.55,0.25,-2.61,9.90
-2.35,-9.55,0.24,9.84,-9.51,0.25,-2.58,9.85
-2.37,-9.53,0.11,9.82,-9.52,0.28,-2.59,9.86
-2.36,-9.52,0.17,9.80,-9.54,0.26,-2.59,9.89
-2.37,-9.51,0.17,9.80,-9.51,0.26,-2.52,9.84
-2.37,-9.53,0.19,9.82,-9.53,0.24,-2.62,9.89
-2.36,-9.54,0.22,9.83,-9.48,0.26,-2.57,9.83
-2.36,-9.53,0.23,9.82,-9.53,0.26,-2.61,9.88
-2.34,-9.53,0.22,9.81,-9.49,0.25,-2.52,9.82
-2.35,-9.53,0.25,9.82,-9.52,0.25,-2.57,9.86
-2.34,-9.49,0.16,9.77,-9.50,0.26,-2.56,9.84
-2.38,-9.51,0.30,9.81,-9.52,0.26,-2.57,9.86
-2.33,-9.54,0.16,9.82,-9.49,0.22,-2.52,9.82
-2.34,-9.53,0.12,9.81,-9.56,0.27,-2.57,9.90
-2.39,-9.59,0.25,9.89,-9.53,0.25,-2.58,9.88
-2.47,-9.60,0.30,9.92,-9.59,0.28,-2.68,9.96
-2.41,-9.55,0.30,9.85,-9.52,0.26,-2.49,9.84
-2.29,-9.42,0.11,9.69,-9.53,0.28,-2.58,9.88
-2.31,-9.58,0.14,9.86,-9.54,0.25,-2.62,9.90
-2.34,-9.59,0.25,9.87,-9.51,0.27,-2.48,9.83
-2.32,-9.55,0.28,9.83,-9.54,0.26,-2.66,9.91
-2.41,-9.55,0.31,9.86,-9.49,0.26,-2.64,9.85
-2.38,-9.47,0.27,9.77,-9.51,0.26,-2.54,9.85
-2.34,-9.44,0.17,9.73,-9.49,0.27,-2.54,9.82
-2.37,-9.45,0.11,9.74,-9.51,0.23,-2.56,9.85
-2.35,-9.46,0.00,9.74,-9.50,0.29,-2.66,9.87
-2.41,-9.53,0.16,9.83,-9.46,0.32,-2.59,9.81
-2.30,-9.51,0.14,9.79,-9.51,0.30,-2.54,9.85
-2.30,-9.52,0.24,9.79,-9.54,0.30,-2.60,9.89
-2.34,-9.51,0.18,9.80,-9.53,0.29,-2.54,9.87
-2.37,-9.55,0.18,9.84,-9.55,0.30,-2.56,9.90
-2.40,-9.54,0.13,9.84,-9.54,0.27,-2.51,9.86
-2.40,-9.54,0.21,9.83,-9.54,0.27,-2.46,9.86
-2.41,-9.53,0.15,9.83,-9.54,0.26,-2.51,9.86
-2.42,-9.55,0.18,9.85,-9.54,0.26,-2.52,9.87
-2.39,-9.52,0.14,9.82,-9.53,0.28,-2.48,9.85
-2.37,-9.52,0.14,9.81,-9.55,0.30,-2.53,9.88
-2.39,-9.49,0.16,9.79,-9.54,0.28,-2.53,9.87
-2.38,-9.54,0.16,9.83,-9.52,0.26,-2.55,9.86
-2.38,-9.49,0.15,9.79,-9.52,0.24,-2.53,9.85
-2.39,-9.52,0.19,9.81,-9.51,0.27,-2.56,9.85
-2.43,-9.53,0.16,9.84,-9.50,0.29,-2.55,9.84
-2.41,-9.51,0.13,9.81,-9.51,0.30,-2.54,9.85
-2.40,-9.52,0.09,9.81,-9.53,0.29,-2.51,9.86
-2.33,-9.52,0.13,9.80,-9.54,0.25,-2.53,9.88
-2.38,-9.52,0.14,9.82,-9.53,0.31,-2.60,9.88
-2.41,-9.58,0.18,9.88,-9.53,0.27,-2.52,9.86
-2.38,-9.55,0.18,9.85,-9.55,0.28,-2.43,9.86
-2.40,-9.56,0.28,9.86,-9.52,0.27,-2.56,9.86
-2.40,-9.50,0.14,9.79,-9.51,0.27,-2.54,9.84
-2.37,-9.48,0.09,9.77,-9.49,0.26,-2.47,9.81
-2.41,-9.50,0.10,9.81,-9.55,0.31,-2.59,9.90
-2.39,-9.55,0.20,9.84,-9.53,0.30,-2.52,9.87
-2.39,-9.52,0.12,9.81,-9.53,0.28,-2.48,9.85
-2.32,-9.52,0.08,9.80,-9.54,0.28,-2.49,9.86
-2.35,-9.56,0.07,9.84,-9.57,0.29,-2.52,9.90
-2.38,-9.54,0.09,9.84,-9.56,0.30,-2.54,9.90
-2.39,-9.59,0.10,9.88,-9.55,0.30,-2.54,9.89
-2.37,-9.51,0.08,9.80,-9.52,0.28,-2.51,9.85
-2.36,-9.54,0.17,9.83,-9.54,0.30,-2.53,9.88
-2.37,-9.52,0.16,9.81,-9.53,0.27,-2.51,9.86
-2.34,-9.52,0.15,9.80,-9.49,0.26,-2.49,9.82
-2.33,-9.50,0.12,9.78,-9.54,0.28,-2.50,9.87
-2.36,-9.51,0.11,9.80,-9.51,0.26,-2.50,9.84
-2.33,-9.52,0.11,9.81,-9.51,0.26,-2.50,9.84
-2.35,-9.54,0.08,9.83,-9.54,0.26,-2.50,9.86
-2.36,-9.50,0.06,9.79,-9.56,0.26,-2.50,9.88
-2.38,-9.54,0.11,9.83,-9.53,0.27,-2.52,9.86
-2.39,-9.54,0.13,9.84,-9.55,0.30,-2.55,9.89
-2.35,-9.55,0.11,9.84,-9.52,0.30,-2.52,9.86
-2.34,-9.52,0.09,9.81,-9.51,0.27,-2.54,9.85
-2.37,-9.52,0.09,9.82,-9.50,0.31,-2.54,9.84
-2.37,-9.59,0.10,9.87,-9.53,0.32,-2.53,9.87
-2.35,-9.47,0.08,9.76,-9.51,0.29,-2.54,9.85
-2.36,-9.47,0.06,9.76,-9.54,0.30,-2.54,9.87
-2.37,-9.49,-0.00,9.78,-9.53,0.27,-2.53,9.86
-2.41,-9.54,0.08,9.84,-9.53,0.29,-2.51,9.86
-2.39,-9.52,0.06,9.82,-9.54,0.29,-2.53,9.88
-2.39,-9.50,0.06,9.80,-9.55,0.29,-2.53,9.89
-2.39,-9.46,0.11,9.76,-9.59,0.29,-2.51,9.92
-2.37,-9.53,0.11,9.83,-9.55,0.30,-2.47,9.87
-2.39,-9.53,0.09,9.82,-9.55,0.32,-2.53,9.88
-2.41,-9.53,0.09,9.83,-9.54,0.27,-2.49,9.86
-2.39,-9.51,0.09,9.81,-9.53,0.31,-2.51,9.86
-2.40,-9.54,0.08,9.84,-9.55,0.32,-2.50,9.88
-2.39,-9.51,0.08,9.80,-9.54,0.29,-2.51,9.87
-2.37,-9.55,0.07,9.84,-9.53,0.32,-2.51,9.86
-2.41,-9.52,0.08,9.82,-9.54,0.29,-2.49,9.87
-2.39,-9.52,0.07,9.81,-9.54,0.30,-2.49,9.87
-2.39,-9.53,0.09,9.83,-9.54,0.31,-2.52,9.87
-2.37,-9.51,0.09,9.80,-9.52,0.28,-2.51,9.85
-2.38,-9.49,0.08,9.78,-9.52,0.30,-2.51,9.85
-2.37,-9.51,0.09,9.80,-9.51,0.31,-2.51,9.84
-2.36,-9.51,0.11,9.80,-9.53,0.29,-2.50,9.86
-2.35,-9.51,0.09,9.80,-9.51,0.27,-2.47,9.83
-2.36,-9.53,0.10,9.82,-9.55,0.28,-2.49,9.87
-2.35,-9.54,0.09,9.82,-9.52,0.27,-2.46,9.83
-2.34,-9.53,0.07,9.81,-9.52,0.26,-2.49,9.84
-2.39,-9.55,0.06,9.84,-9.52,0.28,-2.47,9.84
-2.36,-9.49,0.11,9.78,-9.52,0.29,-2.49,9.85
-2.34,-9.51,0.06,9.79,-9.54,0.27,-2.48,9.86
-2.33,-9.53,0.05,9.81,-9.53,0.34,-2.48,9.85
-2.41,-9.57,0.08,9.86,-9.54,0.31,-2.53,9.87
-2.40,-9.55,0.23,9.85,-9.53,0.29,-2.50,9.86
-2.38,-9.44,0.09,9.74,-9.51,0.28,-2.43,9.82
-2.31,-9.40,-0.02,9.68,-9.57,0.27,-2.64,9.93
-2.32,-9.56,0.02,9.84,-9.54,0.24,-2.45,9.85
-2.32,-9.56,0.00,9.84,-9.53,0.28,-2.50,9.85
-2.41,-9.54,0.09,9.84,-9.55,0.30,-2.58,9.89
-2.41,-9.58,0.16,9.88,-9.53,0.27,-2.52,9.86
-2.38,-9.49,0.12,9.79,-9.51,0.28,-2.48,9.83
-2.36,-9.46,0.05,9.75,-9.52,0.28,-2.52,9.86
-2.34,-9.47,0.00,9.76,-9.52,0.29,-2.53,9.85
-2.41,-9.52,-0.01,9.82,-9.53,0.31,-2.51,9.86
-2.40,-9.54,0.02,9.83,-9.57,0.30,-2.50,9.89
-2.35,-9.54,0.05,9.82,-9.59,0.30,-2.47,9.91
-2.34,-9.55,0.04,9.84,-9.57,0.26,-2.53,9.90
-2.36,-9.55,0.08,9.84,-9.55,0.28,-2.48,9.87
-2.37,-9.54,0.06,9.83,-9.55,0.28,-2.53,9.88
-2.39,-9.54,0.07,9.84,-9.53,0.31,-2.47,9.85
-2.39,-9.44,0.01,9.74,-9.52,0.32,-2.46,9.83
-2.36,-9.52,0.07,9.81,-9.53,0.29,-2.47,9.85
-2.34,-9.50,0.04,9.78,-9.54,0.30,-2.44,9.85
-2.33,-9.53,0.04,9.81,-9.55,0.29,-2.42,9.86
-2.33,-9.53,0.04,9.81,-9.54,0.28,-2.45,9.85
-2.33,-9.54,0.05,9.82,-9.53,0.26,-2.46,9.84
-2.35,-9.52,0.06,9.80,-9.55,0.29,-2.47,9.87
-2.37,-9.51,0.05,9.80,-9.52,0.27,-2.48,9.84
-2.38,-9.53,0.05,9.82,-9.52,0.27,-2.48,9.84
-2.38,-9.52,0.05,9.81,-9.57,0.30,-2.49,9.89
-2.38,-9.53,0.05,9.82,-9.54,0.29,-2.49,9.87
-2.38,-9.51,0.06,9.80,-9.55,0.28,-2.46,9.87
-2.34,-9.54,0.08,9.82,-9.55,0.29,-2.49,9.87
-2.39,-9.52,0.00,9.81,-9.54,0.33,-2.51,9.87
-2.39,-9.59,0.09,9.88,-9.54,0.29,-2.51,9.87
-2.39,-9.54,0.11,9.84,-9.58,0.26,-2.45,9.89
-2.36,-9.50,0.03,9.79,-9.53,0.28,-2.46,9.85
-2.38,-9.53,0.02,9.82,-9.52,0.28,-2.47,9.84
-2.37,-9.47,0.05,9.76,-9.53,0.32,-2.51,9.86
-2.36,-9.52,0.05,9.81,-9.51,0.29,-2.54,9.85
-2.36,-9.50,0.06,9.79,-9.54,0.30,-2.48,9.86
-2.33,-9.52,0.05,9.80,-9.53,0.31,-2.48,9.85
-2.34,-9.54,0.04,9.82,-9.54,0.29,-2.49,9.87
-2.35,-9.53,0.02,9.81,-9.55,0.32,-2.48,9.87
-2.38,-9.53,-0.01,9.82,-9.55,0.32,-2.49,9.87
-2.37,-9.54,0.02,9.83,-9.56,0.29,-2.50,9.88
-2.35,-9.54,0.02,9.83,-9.56,0.29,-2.49,9.88
-2.37,-9.54,0.02,9.83,-9.56,0.32,-2.48,9.88
-2.37,-9.56,0.05,9.85,-9.54,0.30,-2.51,9.87
-2.35,-9.54,0.05,9.83,-9.55,0.30,-2.48,9.87
-2.36,-9.51,0.02,9.80,-9.55,0.31,-2.50,9.88
-2.37,-9.52,0.02,9.81,-9.56,0.25,-2.53,9.89
-2.39,-9.54,-0.01,9.83,-9.56,0.28,-2.52,9.89
-2.38,-9.53,0.04,9.83,-9.53,0.30,-2.52,9.86
-2.39,-9.55,0.02,9.85,-9.55,0.28,-2.50,9.88
-2.37,-9.54,0.07,9.83,-9.54,0.28,-2.50,9.87
-2.38,-9.52,0.09,9.82,-9.54,0.30,-2.49,9.87
-2.37,-9.55,0.07,9.84,-9.57,0.30,-2.52,9.90
-2.35,-9.55,0.08,9.83,-9.53,0.30,-2.52,9.87
-2.35,-9.52,0.09,9.81,-9.54,0.27,-2.49,9.87
-2.35,-9.53,0.09,9.82,-9.52,0.29,-2.54,9.86
-2.38,-9.53,0.10,9.82,-9.52,0.27,-2.53,9.85
-2.40,-9.54,0.11,9.84,-9.52,0.28,-2.52,9.85
-2.37,-9.54,0.08,9.83,-9.54,0.30,-2.51,9.87
-2.39,-9.52,0.08,9.81,-9.54,0.26,-2.52,9.87
-2.38,-9.53,0.10,9.82,-9.53,0.27,-2.50,9.86
-2.37,-9.53,0.11,9.82,-9.54,0.27,-2.51,9.87
-2.38,-9.54,0.09,9.83,-9.54,0.27,-2.56,9.88
-2.35,-9.52,0.13,9.80,-9.52,0.24,-2.57,9.86
-2.38,-9.52,0.12,9.81,-9.51,0.25,-2.51,9.84
-2.33,-9.52,0.08,9.80,-9.52,0.29,-2.55,9.86
-2.36,-9.51,0.14,9.80,-9.53,0.27,-2.55,9.87
-2.36,-9.55,0.10,9.84,-9.55,0.25,-2.56,9.89
-2.37,-9.53,0.13,9.82,-9.53,0.27,-2.56,9.87
-2.35,-9.51,0.12,9.80,-9.51,0.29,-2.57,9.86
-2.37,-9.54,0.10,9.83,-9.51,0.27,-2.53,9.85
-2.38,-9.50,0.14,9.79,-9.53,0.28,-2.57,9.87
-2.39,-9.53,0.12,9.83,-9.52,0.27,-2.56,9.86
-2.35,-9.52,0.06,9.80,-9.54,0.25,-2.56,9.88
-2.37,-9.53,0.17,9.82,-9.50,0.27,-2.56,9.85
-2.37,-9.55,0.16,9.85,-9.51,0.25,-2.57,9.85
-2.37,-9.59,0.29,9.88,-9.53,0.25,-2.58,9.87
-2.36,-9.51,0.12,9.80,-9.53,0.26,-2.56,9.87
-2.37,-9.51,0.18,9.80,-9.52,0.27,-2.59,9.87
-2.36,-9.53,0.13,9.81,-9.50,0.26,-2.60,9.85
-2.36,-9.57,0.19,9.85,-9.50,0.25,-2.57,9.84
-2.36,-9.50,0.22,9.79,-9.46,0.26,-2.58,9.81
-2.37,-9.53,0.24,9.82,-9.49,0.26,-2.58,9.84
-2.36,-9.50,0.15,9.79,-9.51,0.26,-2.61,9.86
-2.39,-9.50,0.19,9.80,-9.50,0.26,-2.59,9.85
-2.40,-9.58,0.22,9.88,-9.48,0.27,-2.60,9.83
-2.37,-9.48,0.11,9.77,-9.49,0.27,-2.57,9.84
-2.38,-9.52,0.17,9.82,-9.50,0.30,-2.59,9.85
-2.47,-9.58,0.29,9.89,-9.52,0.32,-2.68,9.90
-2.36,-9.49,0.31,9.79,-9.50,0.27,-2.54,9.84
-2.33,-9.41,0.21,9.69,-9.51,0.25,-2.65,9.87
-2.35,-9.54,0.07,9.82,-9.50,0.23,-2.71,9.88
-2.36,-9.59,0.24,9.88,-9.51,0.24,-2.47,9.82
-2.32,-9.50,0.16,9.78,-9.48,0.25,-2.63,9.84
-2.42,-9.53,0.35,9.84,-9.47,0.26,-2.68,9.85
-2.44,-9.55,0.30,9.86,-9.45,0.25,-2.56,9.80
-2.42,-9.41,0.27,9.72,-9.49,0.25,-2.55,9.84
-2.42,-9.48,0.22,9.79,-9.49,0.29,-2.57,9.84
-2.46,-9.53,0.21,9.84,-9.52,0.31,-2.59,9.87
-2.42,-9.58,0.26,9.88,-9.54,0.31,-2.58,9.89
-2.38,-9.61,0.21,9.91,-9.61,0.32,-2.61,9.96
-2.35,-9.56,-0.00,9.84,-9.57,0.27,-2.61,9.92
-2.35,-9.58,0.29,9.87,-9.53,0.26,-2.60,9.88
-2.42,-9.52,0.16,9.83,-9.52,0.28,-2.61,9.87
-2.34,-9.29,0.25,9.58,-9.48,0.27,-2.61,9.84
-2.39,-9.50,0.37,9.80,-9.46,0.28,-2.57,9.81
-2.37,-9.48,0.30,9.78,-9.47,0.27,-2.57,9.82
-2.36,-9.50,0.30,9.79,-9.46,0.28,-2.60,9.81
-2.32,-9.43,0.04,9.72,-9.50,0.26,-2.61,9.85
-2.34,-9.45,0.31,9.74,-9.49,0.26,-2.58,9.84
-2.36,-9.47,0.23,9.76,-9.51,0.23,-2.61,9.86
-2.35,-9.42,0.28,9.71,-9.49,0.23,-2.60,9.84
-2.36,-9.54,0.35,9.83,-9.51,0.25,-2.61,9.86
-2.37,-9.51,0.30,9.81,-9.50,0.28,-2.62,9.86
-2.37,-9.52,0.23,9.81,-9.54,0.29,-2.60,9.89
-2.36,-9.52,0.26,9.81,-9.54,0.30,-2.60,9.90
-2.37,-9.58,0.43,9.88,-9.55,0.25,-2.61,9.91
-2.35,-9.61,0.38,9.90,-9.51,0.27,-2.57,9.85
-2.35,-9.52,0.16,9.81,-9.56,0.27,-2.72,9.94
-2.42,-9.54,0.52,9.86,-9.47,0.23,-2.65,9.84
-2.36,-9.49,0.42,9.79,-9.52,0.26,-2.60,9.87
-2.35,-9.52,0.36,9.81,-9.45,0.22,-2.59,9.81
-2.36,-9.49,0.23,9.78,-9.49,0.24,-2.66,9.86
-2.35,-9.45,0.23,9.74,-9.49,0.24,-2.65,9.86
-2.40,-9.57,0.32,9.87,-9.50,0.27,-2.62,9.86
-2.37,-9.53,0.29,9.82,-9.50,0.26,-2.64,9.86
-2.36,-9.55,0.31,9.84,-9.53,0.25,-2.64,9.89
-2.36,-9.54,0.33,9.84,-9.52,0.25,-2.65,9.89
-2.43,-9.64,0.47,9.95,-9.52,0.27,-2.65,9.88
-2.37,-9.53,0.20,9.82,-9.50,0.27,-2.67,9.88
-2.38,-9.53,0.20,9.82,-9.48,0.25,-2.69,9.85
-2.39,-9.52,0.31,9.82,-9.46,0.25,-2.69,9.84
-2.36,-9.52,0.21,9.81,-9.46,0.25,-2.67,9.83
-2.36,-9.51,0.19,9.80,-9.49,0.25,-2.70,9.87
-2.37,-9.53,0.43,9.83,-9.52,0.22,-2.68,9.90
-2.36,-9.49,0.22,9.78,-9.48,0.23,-2.64,9.84
-2.37,-9.52,0.29,9.82,-9.47,0.22,-2.66,9.84
-2.36,-9.50,0.34,9.80,-9.49,0.22,-2.68,9.86
-2.38,-9.52,0.25,9.82,-9.48,0.23,-2.65,9.84
-2.36,-9.48,0.33,9.77,-9.46,0.22,-2.65,9.82
-2.40,-9.49,0.36,9.79,-9.46,0.24,-2.65,9.83
-2.38,-9.53,0.31,9.83,-9.47,0.25,-2.67,9.84
-2.34,-9.48,0.43,9.77,-9.44,0.24,-2.68,9.81
-2.34,-9.45,0.35,9.75,-9.45,0.23,-2.66,9.83
-2.33,-9.50,0.35,9.79,-9.44,0.22,-2.67,9.81
-2.35,-9.47,0.32,9.76,-9.47,0.25,-2.66,9.84
-2.33,-9.49,0.34,9.78,-9.46,0.21,-2.66,9.83
-2.37,-9.52,0.32,9.82,-9.47,0.23,-2.68,9.85
-2.36,-9.50,0.30,9.79,-9.50,0.22,-2.67,9.87
-2.35,-9.52,0.33,9.81,-9.51,0.22,-2.66,9.88
-2.36,-9.54,0.32,9.83,-9.51,0.24,-2.64,9.88
-2.39,-9.51,0.30,9.81,-9.50,0.24,-2.66,9.87
-2.37,-9.52,0.30,9.82,-9.49,0.23,-2.68,9.86
-2.38,-9.52,0.28,9.82,-9.49,0.24,-2.65,9.86
-2.41,-9.50,0.26,9.80,-9.49,0.27,-2.66,9.86
-2.38,-9.51,0.28,9.80,-9.49,0.26,-2.65,9.86
-2.41,-9.52,0.26,9.82,-9.50,0.28,-2.68,9.87
-2.39,-9.54,0.23,9.83,-9.52,0.25,-2.67,9.89
-2.37,-9.53,0.25,9.83,-9.49,0.28,-2.67,9.86
-2.35,-9.53,0.27,9.81,-9.53,0.25,-2.66,9.90
-2.39,-9.51,0.28,9.81,-9.48,0.25,-2.65,9.85
-2.40,-9.54,0.29,9.84,-9.47,0.26,-2.65,9.84
-2.38,-9.54,0.24,9.84,-9.50,0.26,-2.65,9.87
-2.39,-9.51,0.22,9.81,-9.48,0.26,-2.66,9.85
-2.40,-9.51,0.24,9.81,-9.50,0.25,-2.66,9.86
-2.38,-9.51,0.24,9.81,-9.49,0.26,-2.65,9.85
-2.35,-9.50,0.24,9.79,-9.50,0.25,-2.62,9.86
-2.37,-9.53,0.21,9.82,-9.49,0.25,-2.65,9.86
-2.41,-9.58,0.28,9.88,-9.51,0.28,-2.70,9.89
-2.44,-9.57,0.30,9.88,-9.52,0.28,-2.67,9.89
-2.42,-9.51,0.33,9.82,-9.43,0.23,-2.55,9.77
-2.30,-9.41,0.22,9.69,-9.45,0.24,-2.63,9.82
-2.32,-9.48,0.18,9.76,-9.49,0.24,-2.71,9.87
-2.34,-9.56,0.28,9.85,-9.50,0.20,-2.64,9.86
-2.29,-9.55,0.28,9.82,-9.50,0.22,-2.71,9.88
-2.42,-9.54,0.28,9.85,-9.43,0.25,-2.71,9.81
-2.44,-9.50,0.31,9.81,-9.44,0.27,-2.63,9.80
-2.40,-9.44,0.32,9.74,-9.48,0.26,-2.62,9.84
-2.43,-9.50,0.39,9.81,-9.51,0.27,-2.60,9.87
-2.41,-9.55,0.16,9.85,-9.53,0.29,-2.63,9.89
-2.38,-9.53,0.15,9.83,-9.56,0.27,-2.59,9.90
-2.32,-9.58,0.22,9.85,-9.61,0.29,-2.66,9.98
-2.33,-9.58,0.19,9.87,-9.59,0.25,-2.62,9.94
-2.34,-9.60,0.23,9.88,-9.52,0.22,-2.61,9.87
-2.37,-9.55,0.24,9.85,-9.51,0.23,-2.61,9.87
-2.39,-9.53,0.26,9.83,-9.52,0.28,-2.62,9.88
-2.41,-9.49,0.28,9.80,-9.46,0.27,-2.61,9.82
-2.39,-9.47,0.27,9.77,-9.48,0.27,-2.59,9.83
-2.36,-9.49,0.24,9.78,-9.48,0.27,-2.60,9.83
-2.39,-9.49,0.21,9.79,-9.49,0.26,-2.60,9.84
-2.35,-9.49,0.23,9.78,-9.48,0.24,-2.57,9.83
-2.35,-9.48,0.23,9.77,-9.49,0.26,-2.57,9.83
-2.35,-9.50,0.24,9.78,-9.49,0.25,-2.60,9.84
-2.39,-9.46,0.18,9.76,-9.49,0.25,-2.62,9.85
-2.40,-9.48,0.18,9.78,-9.47,0.27,-2.63,9.84
-2.39,-9.56,0.19,9.85,-9.52,0.26,-2.61,9.87
-2.36,-9.54,0.15,9.83,-9.53,0.26,-2.61,9.88
-2.30,-9.54,0.18,9.82,-9.47,0.25,-2.53,9.80
-2.37,-9.53,0.15,9.82,-9.55,0.26,-2.69,9.93
-2.38,-9.59,0.30,9.88,-9.49,0.23,-2.63,9.85
-2.34,-9.52,0.28,9.80,-9.53,0.23,-2.59,9.88
-2.36,-9.48,0.24,9.78,-9.52,0.20,-2.54,9.85
-2.36,-9.54,0.27,9.83,-9.48,0.28,-2.61,9.84
-2.36,-9.52,0.26,9.81,-9.48,0.27,-2.61,9.83
-2.37,-9.47,0.11,9.76,-9.48,0.28,-2.58,9.83
-2.35,-9.49,0.10,9.78,-9.46,0.25,-2.44,9.77
-2.36,-9.55,0.14,9.84,-9.56,0.22,-2.62,9.92
-2.35,-9.54,0.15,9.83,-9.56,0.24,-2.54,9.89
-2.34,-9.51,-0.00,9.79,-9.54,0.24,-2.59,9.89
-2.37,-9.53,0.15,9.82,-9.50,0.24,-2.56,9.84
-2.37,-9.55,0.17,9.84,-9.50,0.23,-2.61,9.85
-2.37,-9.53,0.22,9.83,-9.50,0.24,-2.60,9.85
-2.38,-9.52,0.21,9.82,-9.53,0.28,-2.61,9.88
-2.35,-9.53,0.21,9.82,-9.51,0.25,-2.60,9.86
-2.33,-9.52,0.20,9.80,-9.54,0.25,-2.60,9.89
-2.34,-9.52,0.18,9.80,-9.50,0.24,-2.58,9.85
-2.30,-9.52,0.07,9.80,-9.49,0.24,-2.56,9.84
-2.38,-9.58,0.27,9.87,-9.53,0.23,-2.58,9.87
-2.35,-9.55,0.18,9.84,-9.51,0.22,-2.54,9.85
-2.35,-9.56,0.27,9.85,-9.52,0.23,-2.59,9.87
-2.38,-9.52,0.20,9.82,-9.51,0.22,-2.58,9.86
-2.37,-9.54,0.18,9.84,-9.53,0.25,-2.56,9.87
-2.34,-9.55,0.19,9.84,-9.49,0.25,-2.56,9.83
-2.32,-9.49,0.22,9.77,-9.50,0.24,-2.55,9.83
-2.37,-9.53,0.30,9.83,-9.50,0.22,-2.56,9.84
-2.35,-9.50,0.21,9.79,-9.49,0.23,-2.56,9.83
-2.32,-9.52,0.17,9.80,-9.48,0.26,-2.55,9.82
-2.33,-9.46,0.10,9.74,-9.51,0.27,-2.57,9.85
-2.36,-9.51,0.11,9.80,-9.49,0.25,-2.56,9.83
-2.34,-9.48,0.14,9.76,-9.53,0.27,-2.54,9.87
-2.33,-9.49,0.10,9.77,-9.51,0.26,-2.54,9.85
-2.37,-9.56,0.26,9.86,-9.51,0.27,-2.56,9.86
-2.37,-9.52,0.12,9.81,-9.52,0.25,-2.53,9.85
-2.39,-9.54,0.21,9.84,-9.55,0.28,-2.55,9.89
-2.39,-9.52,0.13,9.82,-9.54,0.27,-2.54,9.88
-2.37,-9.50,0.14,9.79,-9.51,0.28,-2.56,9.85
-2.41,-9.53,0.15,9.83,-9.52,0.26,-2.56,9.87
-2.40,-9.53,0.11,9.83,-9.53,0.29,-2.54,9.87
-2.38,-9.51,0.13,9.80,-9.54,0.25,-2.57,9.89
-2.38,-9.54,0.10,9.84,-9.56,0.27,-2.53,9.89
-2.40,-9.53,0.16,9.83,-9.54,0.27,-2.52,9.87
-2.38,-9.53,0.11,9.83,-9.51,0.28,-2.56,9.85
-2.37,-9.50,0.16,9.80,-9.53,0.28,-2.52,9.86
-2.37,-9.51,0.12,9.81,-9.53,0.26,-2.55,9.86
-2.36,-9.52,0.13,9.81,-9.53,0.28,-2.52,9.86
-2.32,-9.55,0.12,9.83,-9.51,0.28,-2.55,9.85
-2.36,-9.53,0.14,9.82,-9.52,0.24,-2.53,9.85
-2.34,-9.50,0.08,9.79,-9.52,0.27,-2.52,9.85
-2.35,-9.52,0.10,9.80,-9.49,0.28,-2.56,9.84
-2.47,-9.57,0.17,9.88,-9.55,0.28,-2.73,9.93
-2.41,-9.57,0.29,9.87,-9.52,0.29,-2.49,9.85
-2.42,-9.49,0.18,9.80,-9.50,0.28,-2.44,9.81
-2.29,-9.51,0.03,9.78,-9.52,0.25,-2.59,9.87
-2.33,-9.59,0.06,9.87,-9.48,0.29,-2.39,9.78
-2.30,-9.55,0.06,9.82,-9.55,0.28,-2.51,9.88
-2.40,-9.56,0.04,9.86,-9.56,0.29,-2.62,9.91
-2.43,-9.57,0.24,9.88,-9.49,0.29,-2.53,9.83
-2.38,-9.47,0.18,9.77,-9.53,0.29,-2.46,9.84
-2.39,-9.44,0.09,9.74,-9.51,0.26,-2.49,9.83
-2.39,-9.49,0.02,9.78,-9.52,0.29,-2.55,9.87
-2.40,-9.51,0.03,9.81,-9.52,0.31,-2.58,9.86
-2.42,-9.53,0.10,9.83,-9.55,0.30,-2.50,9.87
-2.34,-9.51,0.09,9.79,-9.59,0.28,-2.55,9.93
-2.37,-9.56,0.14,9.85,-9.56,0.28,-2.51,9.89
-2.35,-9.57,0.15,9.85,-9.54,0.29,-2.51,9.87
-2.37,-9.54,0.14,9.83,-9.55,0.30,-2.51,9.88
-2.38,-9.47,0.12,9.76,-9.52,0.30,-2.49,9.84
-2.37,-9.53,0.14,9.82,-9.50,0.31,-2.49,9.83
-2.36,-9.52,0.11,9.81,-9.52,0.28,-2.45,9.83
-2.33,-9.49,0.11,9.78,-9.53,0.26,-2.49,9.85
-2.31,-9.49,0.00,9.76,-9.51,0.27,-2.47,9.83
-2.35,-9.54,0.11,9.82,-9.55,0.26,-2.49,9.87
-2.37,-9.54,0.12,9.83,-9.54,0.26,-2.49,9.86
-2.37,-9.49,0.02,9.78,-9.55,0.29,-2.50,9.87
-2.39,-9.53,0.09,9.82,-9.54,0.28,-2.51,9.87
-2.38,-9.53,0.12,9.83,-9.52,0.29,-2.49,9.84
-2.42,-9.51,0.04,9.82,-9.53,0.29,-2.48,9.85
-2.44,-9.51,0.08,9.82,-9.55,0.31,-2.51,9.88
-2.37,-9.52,0.09,9.81,-9.56,0.29,-2.49,9.89
-2.40,-9.61,0.10,9.91,-9.53,0.28,-2.46,9.84
-2.39,-9.51,0.05,9.81,-9.56,0.30,-2.60,9.91
-2.39,-9.56,0.16,9.85,-9.59,0.29,-2.47,9.91
-2.34,-9.53,0.14,9.82,-9.56,0.26,-2.48,9.88
-2.34,-9.53,0.05,9.81,-9.52,0.28,-2.50,9.85
-2.36,-9.51,0.09,9.80,-9.50,0.27,-2.54,9.84
-2.38,-9.51,0.08,9.80,-9.52,0.29,-2.50,9.85
-2.38,-9.53,0.08,9.83,-9.54,0.29,-2.50,9.87
-2.35,-9.51,0.09,9.80,-9.53,0.26,-2.47,9.85
-2.34,-9.49,0.09,9.77,-9.53,0.27,-2.47,9.85
-2.35,-9.54,0.06,9.82,-9.57,0.27,-2.49,9.89
-2.34,-9.58,0.01,9.86,-9.56,0.26,-2.48,9.88
-2.37,-9.55,0.03,9.84,-9.55,0.30,-2.49,9.87
-2.37,-9.57,0.07,9.86,-9.54,0.28,-2.51,9.87
-2.39,-9.57,0.07,9.86,-9.56,0.29,-2.48,9.88
-2.36,-9.53,0.11,9.82,-9.58,0.27,-2.52,9.90
-2.34,-9.53,0.10,9.82,-9.53,0.29,-2.49,9.85
-2.36,-9.50,0.12,9.79,-9.56,0.29,-2.47,9.87
-2.35,-9.50,0.08,9.79,-9.54,0.27,-2.48,9.86
-2.39,-9.51,0.06,9.80,-9.54,0.27,-2.50,9.87
-2.35,-9.54,0.05,9.83,-9.56,0.29,-2.48,9.88
-2.39,-9.52,0.09,9.81,-9.52,0.29,-2.48,9.84
-2.36,-9.54,0.08,9.82,-9.55,0.28,-2.48,9.87
-2.37,-9.54,0.08,9.83,-9.55,0.30,-2.49,9.87
-2.35,-9.52,0.08,9.80,-9.53,0.27,-2.51,9.86
-2.35,-9.55,0.08,9.83,-9.54,0.30,-2.51,9.87
-2.36,-9.48,0.08,9.77,-9.54,0.28,-2.47,9.86
-2.36,-9.52,0.05,9.81,-9.54,0.31,-2.49,9.86
-2.37,-9.53,0.06,9.82,-9.53,0.31,-2.51,9.86
-2.38,-9.53,0.06,9.83,-9.53,0.28,-2.51,9.86
-2.36,-9.51,0.06,9.80,-9.54,0.29,-2.51,9.87
-2.36,-9.52,0.07,9.81,-9.55,0.28,-2.49,9.88
-2.35,-9.52,0.08,9.80,-9.55,0.29,-2.48,9.88
-2.35,-9.51,0.09,9.80,-9.52,0.28,-2.47,9.84
-2.38,-9.53,0.09,9.83,-9.56,0.28,-2.46,9.88
-2.38,-9.52,0.05,9.81,-9.55,0.31,-2.48,9.87
-2.40,-9.54,0.06,9.84,-9.55,0.31,-2.52,9.88
-2.39,-9.51,0.06,9.81,-9.54,0.30,-2.50,9.86
-2.38,-9.53,0.05,9.82,-9.55,0.30,-2.48,9.88
-2.35,-9.53,0.07,9.82,-9.55,0.29,-2.49,9.87
-2.39,-9.53,0.07,9.83,-9.52,0.29,-2.50,9.85
-2.37,-9.51,0.07,9.80,-9.53,0.29,-2.49,9.85
-2.35,-9.54,0.09,9.82,-9.55,0.30,-2.50,9.87
-2.38,-9.51,0.08,9.80,-9.53,0.29,-2.50,9.86
-2.38,-9.51,0.08,9.80,-9.54,0.30,-2.53,9.87
-2.36,-9.51,0.04,9.80,-9.55,0.30,-2.50,9.88
-2.35,-9.51,0.04,9.79,-9.53,0.31,-2.49,9.86
-2.35,-9.56,0.07,9.84,-9.54,0.28,-2.51,9.87
-2.35,-9.55,0.03,9.83,-9.52,0.32,-2.50,9.85
-2.38,-9.55,0.05,9.84,-9.55,0.28,-2.49,9.87
-2.39,-9.56,0.07,9.85,-9.55,0.28,-2.51,9.88
-2.37,-9.54,0.06,9.83,-9.55,0.29,-2.49,9.88
-2.39,-9.54,0.04,9.83,-9.56,0.28,-2.49,9.89
-2.37,-9.52,0.09,9.81,-9.56,0.28,-2.52,9.89
-2.34,-9.57,0.05,9.86,-9.53,0.29,-2.50,9.86
-2.32,-9.54,0.05,9.82,-9.55,0.31,-2.48,9.87
-2.41,-9.56,0.08,9.86,-9.55,0.30,-2.54,9.88
-2.43,-9.61,0.22,9.91,-9.58,0.32,-2.61,9.94
-2.40,-9.56,0.18,9.86,-9.49,0.29,-2.40,9.79
-2.33,-9.42,-0.01,9.70,-9.56,0.29,-2.63,9.92
-2.31,-9.59,-0.00,9.86,-9.53,0.23,-2.54,9.87
-2.33,-9.54,-0.02,9.82,-9.54,0.27,-2.37,9.83
-2.39,-9.52,0.04,9.82,-9.56,0.28,-2.66,9.93
-2.40,-9.60,0.17,9.90,-9.51,0.28,-2.60,9.86
-2.39,-9.50,0.21,9.80,-9.48,0.26,-2.51,9.81
-2.37,-9.47,0.16,9.76,-9.50,0.26,-2.47,9.82
-2.37,-9.47,0.04,9.76,-9.52,0.27,-2.55,9.86
-2.40,-9.49,0.02,9.79,-9.51,0.31,-2.55,9.85
-2.42,-9.52,0.08,9.82,-9.54,0.30,-2.54,9.88
-2.38,-9.54,0.11,9.84,-9.58,0.28,-2.52,9.91
-2.32,-9.56,0.10,9.84,-9.58,0.30,-2.54,9.91
-2.35,-9.58,0.09,9.86,-9.56,0.31,-2.51,9.88
-2.37,-9.54,0.06,9.83,-9.55,0.28,-2.53,9.88
-2.38,-9.56,0.16,9.85,-9.51,0.30,-2.53,9.85
-2.37,-9.52,0.18,9.81,-9.51,0.27,-2.53,9.84
-2.38,-9.53,0.21,9.82,-9.49,0.25,-2.51,9.82
-2.37,-9.50,0.16,9.79,-9.50,0.26,-2.51,9.83
-2.36,-9.49,0.13,9.78,-9.52,0.26,-2.51,9.84
-2.35,-9.50,0.16,9.79,-9.50,0.26,-2.54,9.83
-2.37,-9.54,0.28,9.83,-9.54,0.24,-2.51,9.86
-2.35,-9.51,0.18,9.80,-9.50,0.27,-2.57,9.84
-2.36,-9.50,0.18,9.79,-9.54,0.25,-2.53,9.87
-2.38,-9.51,0.19,9.80,-9.48,0.26,-2.54,9.82
-2.39,-9.54,0.16,9.83,-9.53,0.28,-2.55,9.87
-2.40,-9.56,0.19,9.86,-9.54,0.29,-2.56,9.88
-2.38,-9.55,0.21,9.85,-9.52,0.29,-2.57,9.86
-2.36,-9.54,0.17,9.83,-9.53,0.30,-2.49,9.86
-2.40,-9.51,0.16,9.81,-9.54,0.32,-2.61,9.90
-2.40,-9.59,0.39,9.89,-9.49,0.31,-2.58,9.84
-2.36,-9.55,0.47,9.85,-9.52,0.26,-2.56,9.86
-2.37,-9.48,0.27,9.77,-9.51,0.26,-2.57,9.86
-2.33,-9.48,0.19,9.77,-9.50,0.27,-2.59,9.85
-2.37,-9.46,0.15,9.75,-9.49,0.28,-2.58,9.84
-2.35,-9.48,0.32,9.77,-9.49,0.27,-2.59,9.84
-2.32,-9.50,0.16,9.78,-9.50,0.24,-2.52,9.83
-2.34,-9.49,0.16,9.77,-9.52,0.23,-2.54,9.86
-2.35,-9.54,0.18,9.83,-9.51,0.26,-2.55,9.85
-2.37,-9.55,0.20,9.84,-9.51,0.26,-2.54,9.85
-2.37,-9.51,0.21,9.80,-9.53,0.24,-2.57,9.88
-2.39,-9.60,0.38,9.90,-9.50,0.27,-2.59,9.85
-2.37,-9.51,0.17,9.81,-9.52,0.24,-2.60,9.87
-2.36,-9.50,0.25,9.80,-9.51,0.29,-2.59,9.86
-2.38,-9.53,0.28,9.83,-9.51,0.28,-2.58,9.86
-2.35,-9.48,0.12,9.77,-9.49,0.27,-2.58,9.83
-2.37,-9.51,0.26,9.81,-9.49,0.29,-2.62,9.85
-2.38,-9.53,0.29,9.82,-9.51,0.26,-2.59,9.86
-2.38,-9.53,0.28,9.83,-9.50,0.24,-2.57,9.85
-2.41,-9.51,0.23,9.81,-9.52,0.25,-2.59,9.87
-2.41,-9.52,0.29,9.83,-9.47,0.25,-2.51,9.80
-2.40,-9.51,0.28,9.81,-9.51,0.24,-2.64,9.88
-2.36,-9.52,0.29,9.82,-9.53,0.26,-2.59,9.88
-2.36,-9.51,0.24,9.80,-9.51,0.27,-2.64,9.88
-2.37,-9.52,0.25,9.82,-9.47,0.24,-2.62,9.83
-2.34,-9.55,0.28,9.84,-9.51,0.25,-2.62,9.87
-2.32,-9.54,0.27,9.82,-9.51,0.26,-2.62,9.87
-2.34,-9.52,0.28,9.81,-9.51,0.24,-2.60,9.86
-2.36,-9.54,0.28,9.84,-9.50,0.25,-2.57,9.85
-2.38,-9.54,0.30,9.84,-9.51,0.28,-2.60,9.87
-2.38,-9.52,0.16,9.82,-9.53,0.24,-2.59,9.88
-2.36,-9.51,0.24,9.80,-9.50,0.28,-2.62,9.86
-2.37,-9.53,0.28,9.82,-9.53,0.25,-2.62,9.89
-2.37,-9.54,0.27,9.83,-9.48,0.24,-2.61,9.84
-2.37,-9.54,0.24,9.83,-9.50,0.25,-2.64,9.86
-2.37,-9.53,0.24,9.82,-9.51,0.24,-2.62,9.86
-2.40,-9.52,0.25,9.82,-9.53,0.25,-2.66,9.89
-2.36,-9.45,0.20,9.74,-9.50,0.24,-2.64,9.86
-2.41,-9.52,0.31,9.83,-9.52,0.25,-2.65,9.88
-2.40,-9.51,0.31,9.81,-9.52,0.25,-2.66,9.89
-2.40,-9.53,0.54,9.84,-9.51,0.23,-2.65,9.87
-2.39,-9.52,0.47,9.83,-9.49,0.26,-2.66,9.86
-2.35,-9.49,0.21,9.78,-9.47,0.22,-2.64,9.83
-2.38,-9.53,0.32,9.83,-9.48,0.24,-2.67,9.85
-2.34,-9.50,0.15,9.79,-9.49,0.24,-2.69,9.87
-2.37,-9.51,0.29,9.80,-9.47,0.26,-2.66,9.84
-2.35,-9.53,0.33,9.82,-9.49,0.20,-2.64,9.85
-2.35,-9.51,0.23,9.80,-9.50,0.25,-2.67,9.87
-2.36,-9.52,0.27,9.81,-9.49,0.22,-2.64,9.85
-2.34,-9.50,0.25,9.79,-9.49,0.25,-2.64,9.85
-2.34,-9.56,0.45,9.85,-9.52,0.26,-2.65,9.88
-2.33,-9.51,0.33,9.79,-9.48,0.24,-2.67,9.85
-2.35,-9.57,0.23,9.86,-9.51,0.25,-2.62,9.86
-2.36,-9.55,0.32,9.84,-9.48,0.26,-2.71,9.87
-2.42,-9.54,0.36,9.85,-9.51,0.25,-2.71,9.89
-2.37,-9.52,0.37,9.82,-9.45,0.24,-2.57,9.80
-2.40,-9.46,0.46,9.77,-9.42,0.22,-2.61,9.78
-2.30,-9.46,0.25,9.74,-9.49,0.25,-2.71,9.87
-2.29,-9.52,0.25,9.79,-9.47,0.22,-2.61,9.83
-2.31,-9.51,0.28,9.79,-9.50,0.22,-2.72,9.88
-2.35,-9.49,0.37,9.79,-9.42,0.20,-2.73,9.81
-2.44,-9.48,0.42,9.80,-9.43,0.26,-2.71,9.81
-2.43,-9.45,0.33,9.76,-9.44,0.28,-2.61,9.80
-2.41,-9.46,0.23,9.76,-9.48,0.25,-2.67,9.86
-2.37,-9.57,0.25,9.86,-9.52,0.28,-2.66,9.89
-2.37,-9.56,0.28,9.85,-9.57,0.24,-2.63,9.92
-2.34,-9.56,0.31,9.85,-9.56,0.23,-2.66,9.92
-2.31,-9.56,0.27,9.84,-9.57,0.21,-2.65,9.94
-2.34,-9.55,0.31,9.84,-9.53,0.22,-2.63,9.89
-2.35,-9.54,0.32,9.83,-9.52,0.24,-2.62,9.87
-2.40,-9.52,0.30,9.82,-9.48,0.24,-2.62,9.84
-2.39,-9.49,0.25,9.79,-9.46,0.24,-2.64,9.83
-2.37,-9.47,0.28,9.76,-9.44,0.23,-2.62,9.80
-2.36,-9.47,0.28,9.77,-9.47,0.23,-2.60,9.82
-2.34,-9.44,0.21,9.73,-9.46,0.23,-2.60,9.81
-2.36,-9.46,0.31,9.76,-9.48,0.24,-2.62,9.84
-2.34,-9.51,0.31,9.79,-9.49,0.22,-2.63,9.85
-2.39,-9.54,0.30,9.84,-9.51,0.23,-2.64,9.87
-2.37,-9.51,0.26,9.80,-9.50,0.23,-2.64,9.86
-2.38,-9.55,0.23,9.84,-9.51,0.23,-2.63,9.87
-2.42,-9.57,0.23,9.87,-9.52,0.25,-2.64,9.88
-2.40,-9.55,0.23,9.85,-9.56,0.25,-2.63,9.92
-2.36,-9.54,0.18,9.82,-9.49,0.25,-2.55,9.83
-2.39,-9.61,0.31,9.91,-9.56,0.27,-2.73,9.94
-2.40,-9.58,0.29,9.88,-9.52,0.22,-2.57,9.87
-2.35,-9.54,0.30,9.83,-9.52,0.24,-2.61,9.87
-2.37,-9.51,0.26,9.81,-9.49,0.19,-2.56,9.83
-2.40,-9.55,0.31,9.85,-9.50,0.25,-2.66,9.87
-2.37,-9.52,0.33,9.81,-9.49,0.24,-2.62,9.85
-2.35,-9.50,0.24,9.79,-9.51,0.22,-2.63,9.87
-2.34,-9.49,0.20,9.78,-9.50,0.23,-2.57,9.85
-2.35,-9.53,0.26,9.81,-9.50,0.22,-2.58,9.85
-2.33,-9.52,0.24,9.80,-9.50,0.26,-2.65,9.87
-2.31,-9.53,0.23,9.81,-9.50,0.22,-2.63,9.86
-2.36,-9.52,0.20,9.80,-9.49,0.25,-2.63,9.85
-2.36,-9.54,0.20,9.83,-9.52,0.25,-2.64,9.89
-2.38,-9.54,0.26,9.84,-9.50,0.25,-2.63,9.86
-2.36,-9.54,0.26,9.83,-9.49,0.24,-2.62,9.85
-2.36,-9.54,0.22,9.83,-9.52,0.24,-2.61,9.88
-2.37,-9.52,0.23,9.81,-9.53,0.23,-2.61,9.89
-2.41,-9.55,0.19,9.85,-9.53,0.24,-2.62,9.88
-2.40,-9.53,0.24,9.83,-9.52,0.23,-2.60,9.87
-2.37,-9.54,0.24,9.83,-9.53,0.22,-2.62,9.88
-2.38,-9.54,0.22,9.83,-9.51,0.26,-2.61,9.87
-2.38,-9.52,0.21,9.82,-9.51,0.27,-2.61,9.86
-2.36,-9.54,0.23,9.83,-9.47,0.26,-2.62,9.83
-2.40,-9.53,0.22,9.83,-9.50,0.25,-2.60,9.86
-2.34,-9.53,0.24,9.81,-9.51,0.25,-2.64,9.87
-2.37,-9.52,0.23,9.81,-9.50,0.25,-2.62,9.86
-2.34,-9.49,0.22,9.78,-9.50,0.24,-2.61,9.86
-2.34,-9.51,0.24,9.79,-9.48,0.21,-2.64,9.84
-2.36,-9.52,0.21,9.81,-9.50,0.23,-2.62,9.86
-2.30,-9.51,0.02,9.79,-9.52,0.25,-2.59,9.87
-2.32,-9.52,0.13,9.80,-9.49,0.23,-2.59,9.84
-2.32,-9.50,0.21,9.78,-9.50,0.21,-2.58,9.85
-2.36,-9.55,0.21,9.84,-9.49,0.21,-2.60,9.84
-2.34,-9.53,0.20,9.81,-9.51,0.22,-2.60,9.86
-2.38,-9.55,0.16,9.84,-9.52,0.20,-2.62,9.88
-2.36,-9.55,0.18,9.83,-9.51,0.24,-2.60,9.86
-2.39,-9.56,0.25,9.86,-9.52,0.27,-2.61,9.88
-2.38,-9.52,0.21,9.81,-9.51,0.28,-2.59,9.86
-2.37,-9.54,0.16,9.83,-9.49,0.26,-2.61,9.84
-2.33,-9.55,0.19,9.83,-9.47,0.25,-2.55,9.81
-2.39,-9.52,0.16,9.82,-9.49,0.25,-2.63,9.85
-2.36,-9.51,0.15,9.80,-9.49,0.24,-2.54,9.82
-2.37,-9.53,0.17,9.82,-9.51,0.24,-2.60,9.86
-2.34,-9.51,0.15,9.80,-9.51,0.24,-2.52,9.84
-2.36,-9.55,0.21,9.84,-9.52,0.25,-2.60,9.88
-2.37,-9.51,0.20,9.80,-9.54,0.24,-2.54,9.88
-2.38,-9.55,0.18,9.84,-9.50,0.23,-2.57,9.85
-2.36,-9.54,0.17,9.83,-9.53,0.21,-2.56,9.87
-2.35,-9.53,0.17,9.82,-9.53,0.23,-2.57,9.87
-2.34,-9.56,0.17,9.85,-9.52,0.26,-2.60,9.88
