Ax,Ay,Az,Amag,Ax2,Ay2,Az2,Amag2
-1.89,-9.64,0.18,9.82,-9.57,0.07,-2.36,9.85
-1.94,-9.64,0.18,9.83,-9.59,0.08,-2.37,9.88
-1.93,-9.65,0.17,9.84,-9.59,0.11,-2.37,9.88
-1.92,-9.63,0.16,9.82,-9.60,0.11,-2.39,9.89
-1.90,-9.64,0.15,9.82,-9.58,0.11,-2.39,9.87
-1.91,-9.63,0.13,9.82,-9.56,0.09,-2.38,9.85
-1.91,-9.61,0.12,9.80,-9.58,0.11,-2.39,9.87
-1.89,-9.62,0.14,9.80,-9.55,0.09,-2.41,9.85
-1.91,-9.60,0.14,9.78,-9.57,0.10,-2.40,9.87
-1.92,-9.60,0.16,9.79,-9.56,0.11,-2.39,9.85
-1.92,-9.59,0.16,9.78,-9.57,0.11,-2.37,9.86
-1.91,-9.61,0.14,9.80,-9.56,0.08,-2.40,9.86
-1.92,-9.60,0.14,9.79,-9.56,0.08,-2.38,9.85
-1.87,-9.45,0.03,9.63,-9.54,0.10,-2.39,9.84
-1.94,-9.70,0.19,9.89,-9.56,0.06,-2.37,9.85
-1.91,-9.66,0.18,9.85,-9.61,0.08,-2.39,9.90
-1.91,-9.64,0.14,9.83,-9.60,0.11,-2.33,9.88
-1.88,-9.60,0.13,9.78,-9.60,0.09,-2.37,9.88
-1.89,-9.54,0.16,9.73,-9.58,0.12,-2.34,9.86
-1.93,-9.65,0.14,9.85,-9.56,0.11,-2.36,9.85
-1.91,-9.63,0.13,9.82,-9.58,0.12,-2.36,9.87
-1.94,-9.64,0.15,9.83,-9.57,0.10,-2.37,9.86
-1.92,-9.62,0.15,9.81,-9.57,0.11,-2.37,9.86
-1.94,-9.62,0.15,9.81,-9.55,0.09,-2.38,9.84
-1.92,-9.64,0.12,9.83,-9.59,0.10,-2.35,9.87
-1.94,-9.61,0.12,9.81,-9.58,0.10,-2.36,9.86
-1.95,-9.63,0.13,9.82,-9.59,0.08,-2.37,9.88
-1.92,-9.61,0.13,9.81,-9.58,0.08,-2.36,9.86
-1.92,-9.61,0.14,9.80,-9.56,0.09,-2.38,9.85
-1.91,-9.61,0.15,9.80,-9.57,0.09,-2.35,9.86
-1.93,-9.64,0.15,9.83,-9.59,0.11,-2.35,9.88
-1.92,-9.62,0.13,9.81,-9.55,0.09,-2.37,9.84
-1.93,-9.63,0.14,9.82,-9.58,0.12,-2.37,9.87
-1.93,-9.64,0.15,9.83,-9.57,0.13,-2.38,9.86
-1.88,-9.61,0.16,9.79,-9.60,0.11,-2.35,9.88
-1.90,-9.63,0.12,9.82,-9.61,0.13,-2.37,9.90
-2.02,-9.66,0.17,9.87,-9.57,0.15,-2.45,9.88
-1.96,-9.66,0.31,9.86,-9.56,0.12,-2.33,9.84
-1.95,-9.60,0.16,9.79,-9.54,0.10,-2.32,9.82
-1.87,-9.50,0.01,9.69,-9.60,0.10,-2.49,9.92
-1.88,-9.69,0.09,9.87,-9.53,0.07,-2.26,9.80
-1.86,-9.64,0.04,9.82,-9.59,0.10,-2.38,9.88
-1.94,-9.63,0.17,9.83,-9.59,0.10,-2.45,9.90
-1.97,-9.61,0.42,9.82,-9.54,0.12,-2.41,9.84
-1.95,-9.56,0.25,9.76,-9.57,0.12,-2.37,9.86
-1.92,-9.57,0.12,9.76,-9.53,0.11,-2.33,9.81
-1.94,-9.59,0.08,9.78,-9.54,0.14,-2.38,9.83
-1.96,-9.62,0.18,9.82,-9.59,0.15,-2.38,9.88
-1.93,-9.66,0.11,9.85,-9.60,0.13,-2.37,9.89
-1.90,-9.67,0.07,9.85,-9.63,0.11,-2.33,9.91
-1.92,-9.69,0.13,9.87,-9.63,0.09,-2.36,9.91
-1.93,-9.68,0.19,9.87,-9.60,0.10,-2.31,9.88
-1.93,-9.64,0.20,9.84,-9.59,0.10,-2.35,9.87
-1.93,-9.63,0.17,9.82,-9.56,0.10,-2.32,9.84
-1.93,-9.61,0.13,9.81,-9.58,0.11,-2.34,9.86
-1.92,-9.60,0.12,9.79,-9.60,0.13,-2.35,9.88
-1.92,-9.61,0.10,9.80,-9.57,0.10,-2.28,9.84
-1.90,-9.62,0.12,9.81,-9.60,0.08,-2.30,9.88
-1.93,-9.61,0.16,9.80,-9.57,0.10,-2.31,9.85
-1.88,-9.61,0.17,9.79,-9.56,0.12,-2.33,9.84
-1.90,-9.58,0.15,9.77,-9.56,0.13,-2.34,9.84
-1.96,-9.60,0.12,9.80,-9.58,0.11,-2.33,9.86
-1.92,-9.61,0.11,9.80,-9.57,0.11,-2.34,9.85
-1.94,-9.62,0.08,9.82,-9.59,0.13,-2.31,9.87
-1.95,-9.62,0.10,9.81,-9.57,0.12,-2.32,9.85
-1.88,-9.65,0.12,9.83,-9.60,0.11,-2.34,9.88
-1.91,-9.63,0.14,9.82,-9.58,0.12,-2.30,9.85
-1.95,-9.61,0.11,9.81,-9.62,0.11,-2.40,9.92
-1.94,-9.66,0.22,9.86,-9.61,0.11,-2.31,9.89
-1.90,-9.60,0.18,9.79,-9.58,0.10,-2.33,9.86
-1.93,-9.60,0.11,9.79,-9.55,0.09,-2.32,9.83
-1.93,-9.58,0.12,9.77,-9.54,0.09,-2.34,9.83
-1.93,-9.48,0.18,9.67,-9.52,0.12,-2.33,9.80
-1.90,-9.60,0.18,9.78,-9.56,0.14,-2.37,9.85
-1.86,-9.60,0.08,9.78,-9.59,0.11,-2.33,9.87
-1.89,-9.63,0.07,9.82,-9.55,0.11,-2.29,9.82
-1.85,-9.58,0.15,9.76,-9.58,0.08,-2.30,9.85
-1.90,-9.66,0.12,9.85,-9.63,0.11,-2.34,9.91
-1.92,-9.67,0.13,9.86,-9.57,0.09,-2.34,9.85
-1.92,-9.62,0.10,9.81,-9.58,0.11,-2.33,9.86
-1.94,-9.65,0.11,9.84,-9.56,0.10,-2.36,9.85
-1.90,-9.62,0.12,9.80,-9.58,0.10,-2.35,9.87
-1.92,-9.61,0.11,9.80,-9.60,0.09,-2.33,9.88
-1.92,-9.63,0.13,9.81,-9.59,0.11,-2.32,9.87
-1.93,-9.61,0.10,9.80,-9.61,0.11,-2.34,9.89
-1.92,-9.61,0.12,9.80,-9.60,0.10,-2.32,9.88
-1.90,-9.63,0.10,9.82,-9.58,0.08,-2.31,9.85
-1.91,-9.63,0.10,9.82,-9.58,0.11,-2.36,9.87
-1.91,-9.62,0.14,9.81,-9.57,0.10,-2.36,9.86
-1.88,-9.63,0.13,9.81,-9.61,0.13,-2.32,9.89
-1.90,-9.63,0.15,9.81,-9.59,0.14,-2.36,9.87
-1.93,-9.61,0.13,9.80,-9.56,0.11,-2.36,9.84
-1.94,-9.60,0.12,9.80,-9.59,0.12,-2.33,9.87
-1.91,-9.61,0.12,9.80,-9.58,0.12,-2.35,9.87
-1.92,-9.62,0.07,9.81,-9.59,0.11,-2.31,9.87
-1.92,-9.60,0.12,9.80,-9.57,0.13,-2.31,9.85
-1.90,-9.60,0.12,9.78,-9.56,0.11,-2.32,9.84
-1.92,-9.63,0.12,9.82,-9.59,0.11,-2.32,9.86
-1.90,-9.64,0.12,9.83,-9.59,0.10,-2.33,9.86
-1.87,-9.63,0.13,9.81,-9.60,0.08,-2.34,9.88
-1.90,-9.60,0.12,9.79,-9.57,0.08,-2.31,9.85
-1.91,-9.61,0.10,9.80,-9.57,0.09,-2.35,9.85
-1.95,-9.62,0.11,9.82,-9.60,0.08,-2.34,9.89
-1.94,-9.64,0.12,9.84,-9.59,0.13,-2.33,9.87
-1.92,-9.63,0.11,9.82,-9.59,0.13,-2.34,9.87
-1.94,-9.62,0.10,9.82,-9.58,0.11,-2.33,9.87
-1.91,-9.63,0.08,9.82,-9.62,0.13,-2.32,9.89
-1.92,-9.58,0.06,9.77,-9.58,0.11,-2.33,9.86
-1.89,-9.53,0.06,9.72,-9.54,0.12,-2.36,9.82
-1.89,-9.64,0.08,9.82,-9.56,0.10,-2.35,9.85
-1.88,-9.64,0.10,9.82,-9.58,0.12,-2.34,9.86
-1.93,-9.62,0.13,9.81,-9.59,0.10,-2.35,9.87
-1.92,-9.63,0.11,9.81,-9.58,0.09,-2.36,9.86
-1.89,-9.63,0.11,9.81,-9.58,0.12,-2.34,9.86
-1.90,-9.61,0.12,9.80,-9.54,0.10,-2.35,9.83
-1.92,-9.60,0.16,9.79,-9.57,0.12,-2.36,9.85
-1.93,-9.61,0.12,9.80,-9.58,0.12,-2.29,9.85
-1.88,-9.62,0.11,9.80,-9.57,0.10,-2.32,9.85
-1.91,-9.63,0.10,9.82,-9.57,0.11,-2.33,9.85
-1.90,-9.63,0.13,9.81,-9.60,0.12,-2.34,9.88
-1.95,-9.66,0.11,9.85,-9.57,0.11,-2.33,9.85
-1.86,-9.63,0.12,9.81,-9.60,0.11,-2.32,9.88
-1.92,-9.65,0.09,9.84,-9.60,0.13,-2.34,9.89
-1.99,-9.68,0.22,9.89,-9.62,0.13,-2.42,9.92
-1.92,-9.63,0.27,9.82,-9.53,0.11,-2.26,9.80
-1.92,-9.50,0.08,9.69,-9.58,0.11,-2.41,9.88
-1.84,-9.63,-0.03,9.81,-9.59,0.09,-2.41,9.88
-1.90,-9.68,0.11,9.87,-9.52,0.06,-2.20,9.77
-1.86,-9.64,0.05,9.82,-9.59,0.10,-2.38,9.88
-1.95,-9.68,0.15,9.88,-9.57,0.12,-2.38,9.86
-1.98,-9.62,0.20,9.83,-9.56,0.12,-2.37,9.85
-1.88,-9.54,0.14,9.72,-9.56,0.08,-2.34,9.84
-1.93,-9.55,0.07,9.74,-9.51,0.11,-2.32,9.79
-1.96,-9.59,0.06,9.79,-9.54,0.17,-2.34,9.83
-1.94,-9.62,0.08,9.81,-9.57,0.14,-2.33,9.85
-1.91,-9.66,0.06,9.85,-9.62,0.13,-2.32,9.90
-1.88,-9.67,0.08,9.86,-9.63,0.10,-2.31,9.90
-1.92,-9.67,0.12,9.86,-9.64,0.11,-2.34,9.92
-1.90,-9.66,0.13,9.85,-9.61,0.12,-2.33,9.89
-1.96,-9.66,0.14,9.86,-9.61,0.10,-2.32,9.89
-1.93,-9.64,0.09,9.83,-9.58,0.12,-2.28,9.85
-1.90,-9.64,0.07,9.83,-9.59,0.12,-2.29,9.86
-1.91,-9.65,0.07,9.83,-9.59,0.10,-2.27,9.86
-1.89,-9.62,0.09,9.81,-9.58,0.10,-2.30,9.85
-1.87,-9.61,0.13,9.79,-9.58,0.08,-2.31,9.86
-1.87,-9.61,0.15,9.80,-9.60,0.10,-2.35,9.88
-1.88,-9.60,0.15,9.78,-9.61,0.10,-2.34,9.89
-1.90,-9.62,0.15,9.80,-9.53,0.11,-2.34,9.81
-1.89,-9.60,0.13,9.78,-9.54,0.11,-2.35,9.83
-1.91,-9.60,0.11,9.79,-9.53,0.14,-2.36,9.82
-1.90,-9.61,0.11,9.80,-9.55,0.13,-2.34,9.83
-1.89,-9.63,0.13,9.82,-9.58,0.13,-2.33,9.86
-1.86,-9.61,0.15,9.79,-9.56,0.13,-2.34,9.84
-1.93,-9.59,0.06,9.78,-9.58,0.12,-2.37,9.87
-1.92,-9.65,0.15,9.84,-9.63,0.13,-2.43,9.94
-1.92,-9.63,0.21,9.83,-9.64,0.12,-2.35,9.92
-1.91,-9.60,0.15,9.79,-9.58,0.08,-2.36,9.87
-1.93,-9.60,0.14,9.79,-9.58,0.11,-2.39,9.87
-1.92,-9.61,0.15,9.80,-9.55,0.10,-2.36,9.83
-1.93,-9.60,0.14,9.80,-9.57,0.13,-2.37,9.86
-1.87,-9.60,0.15,9.78,-9.57,0.11,-2.34,9.86
-1.86,-9.63,0.14,9.81,-9.57,0.12,-2.32,9.85
-1.84,-9.65,0.12,9.83,-9.61,0.10,-2.37,9.90
-1.87,-9.66,0.12,9.84,-9.61,0.11,-2.35,9.89
-1.91,-9.66,0.10,9.85,-9.62,0.12,-2.35,9.90
-1.93,-9.71,0.08,9.90,-9.60,0.08,-2.39,9.89
-1.95,-9.72,0.11,9.92,-9.57,0.11,-2.40,9.87
-1.89,-9.63,0.21,9.81,-9.57,0.09,-2.36,9.85
-1.91,-9.61,0.20,9.80,-9.52,0.08,-2.40,9.82
-1.88,-9.60,0.17,9.78,-9.58,0.11,-2.39,9.87
-1.90,-9.61,0.23,9.80,-9.57,0.11,-2.38,9.86
-1.88,-9.59,0.17,9.77,-9.58,0.09,-2.40,9.88
-1.93,-9.61,0.21,9.80,-9.56,0.14,-2.35,9.84
-1.93,-9.59,0.20,9.78,-9.60,0.11,-2.40,9.89
-1.94,-9.63,0.17,9.83,-9.59,0.12,-2.39,9.89
-1.93,-9.63,0.19,9.83,-9.57,0.10,-2.41,9.87
-1.91,-9.62,0.21,9.81,-9.58,0.13,-2.37,9.87
-1.93,-9.72,0.24,9.91,-9.58,0.09,-2.44,9.89
-1.86,-9.60,0.22,9.78,-9.57,0.12,-2.37,9.86
-1.86,-9.60,0.20,9.78,-9.56,0.11,-2.40,9.85
-1.89,-9.59,0.24,9.77,-9.55,0.11,-2.42,9.85
-1.90,-9.60,0.20,9.79,-9.54,0.08,-2.38,9.83
-1.92,-9.62,0.19,9.81,-9.57,0.11,-2.42,9.87
-1.90,-9.60,0.20,9.78,-9.56,0.10,-2.39,9.85
-1.91,-9.66,0.23,9.84,-9.58,0.10,-2.42,9.88
-1.89,-9.63,0.20,9.81,-9.60,0.11,-2.38,9.89
-1.93,-9.61,0.17,9.80,-9.56,0.10,-2.40,9.86
-1.92,-9.65,0.24,9.84,-9.55,0.11,-2.39,9.85
-1.93,-9.63,0.24,9.82,-9.59,0.13,-2.44,9.89
-1.90,-9.60,0.15,9.79,-9.55,0.11,-2.44,9.86
-1.94,-9.61,0.16,9.80,-9.55,0.10,-2.45,9.86
-1.94,-9.58,0.23,9.78,-9.51,0.10,-2.45,9.82
-1.93,-9.60,0.28,9.80,-9.53,0.09,-2.44,9.84
-1.90,-9.66,0.17,9.84,-9.55,0.10,-2.44,9.85
-1.90,-9.62,0.16,9.80,-9.57,0.09,-2.44,9.88
-1.93,-9.65,0.26,9.84,-9.57,0.09,-2.42,9.87
-1.90,-9.61,0.12,9.80,-9.57,0.09,-2.45,9.88
-1.91,-9.59,0.21,9.78,-9.57,0.10,-2.45,9.88
-1.96,-9.59,0.27,9.80,-9.57,0.09,-2.47,9.89
-1.92,-9.59,0.28,9.78,-9.60,0.12,-2.44,9.91
-1.97,-9.64,0.23,9.84,-9.57,0.08,-2.40,9.86
-1.93,-9.65,0.22,9.84,-9.54,0.09,-2.39,9.84
-1.88,-9.62,0.24,9.81,-9.52,0.11,-2.39,9.81
-1.86,-9.61,0.19,9.79,-9.55,0.12,-2.40,9.85
-1.91,-9.63,0.22,9.82,-9.57,0.13,-2.43,9.88
-1.96,-9.63,0.32,9.83,-9.57,0.12,-2.50,9.89
-1.89,-9.59,0.38,9.78,-9.48,0.10,-2.33,9.76
-1.87,-9.51,0.18,9.69,-9.54,0.11,-2.42,9.84
-1.91,-9.63,0.25,9.82,-9.52,0.07,-2.41,9.82
-1.85,-9.62,0.14,9.80,-9.52,0.07,-2.35,9.81
-1.84,-9.60,0.16,9.78,-9.57,0.09,-2.51,9.89
-1.92,-9.63,0.21,9.83,-9.51,0.04,-2.51,9.84
-1.95,-9.60,0.24,9.80,-9.51,0.07,-2.46,9.82
-1.93,-9.56,0.22,9.76,-9.48,0.13,-2.43,9.79
-1.96,-9.57,0.20,9.77,-9.54,0.16,-2.48,9.86
-1.96,-9.63,0.17,9.83,-9.55,0.14,-2.45,9.86
-1.94,-9.66,0.25,9.85,-9.61,0.14,-2.44,9.91
-1.92,-9.65,0.23,9.84,-9.60,0.10,-2.43,9.91
-1.90,-9.68,0.19,9.86,-9.64,0.11,-2.42,9.94
-1.93,-9.70,0.24,9.89,-9.59,0.11,-2.46,9.90
-1.93,-9.64,0.28,9.84,-9.57,0.12,-2.43,9.88
-1.98,-9.65,0.35,9.86,-9.57,0.10,-2.42,9.87
-1.92,-9.56,0.15,9.75,-9.52,0.09,-2.45,9.83
-1.89,-9.54,0.21,9.72,-9.48,0.11,-2.41,9.78
-1.87,-9.54,0.28,9.73,-9.51,0.08,-2.45,9.82
-1.83,-9.58,0.22,9.76,-9.48,0.07,-2.43,9.79
-1.85,-9.58,0.22,9.75,-9.51,0.10,-2.46,9.82
-1.89,-9.59,0.20,9.77,-9.52,0.08,-2.46,9.84
-1.94,-9.60,0.21,9.79,-9.52,0.10,-2.48,9.83
-1.95,-9.60,0.22,9.80,-9.54,0.10,-2.48,9.86
-1.95,-9.60,0.20,9.80,-9.60,0.09,-2.50,9.92
-1.95,-9.64,0.16,9.83,-9.56,0.12,-2.45,9.87
-1.94,-9.64,0.14,9.83,-9.59,0.10,-2.50,9.91
-1.84,-9.71,0.16,9.88,-9.57,0.12,-2.43,9.87
-1.92,-9.65,0.16,9.84,-9.59,0.08,-2.62,9.94
-1.95,-9.70,0.29,9.90,-9.55,0.05,-2.46,9.87
-1.92,-9.58,0.23,9.78,-9.59,0.07,-2.41,9.89
-1.92,-9.61,0.20,9.80,-9.53,0.06,-2.48,9.84
-1.94,-9.61,0.30,9.81,-9.56,0.09,-2.47,9.88
-1.90,-9.58,0.27,9.77,-9.57,0.11,-2.46,9.88
-1.89,-9.57,0.19,9.75,-9.54,0.09,-2.43,9.85
-1.88,-9.62,0.18,9.80,-9.53,0.09,-2.42,9.83
-1.87,-9.59,0.22,9.78,-9.55,0.12,-2.43,9.85
-1.91,-9.61,0.22,9.80,-9.54,0.11,-2.47,9.85
-1.90,-9.59,0.19,9.78,-9.53,0.10,-2.47,9.84
-1.89,-9.63,0.21,9.81,-9.53,0.10,-2.45,9.84
-1.94,-9.63,0.24,9.83,-9.52,0.09,-2.45,9.84
-1.92,-9.61,0.26,9.80,-9.55,0.09,-2.42,9.86
-1.90,-9.62,0.25,9.81,-9.55,0.08,-2.45,9.86
-1.90,-9.62,0.23,9.81,-9.57,0.07,-2.42,9.87
-1.93,-9.60,0.25,9.80,-9.55,0.10,-2.44,9.86
-1.91,-9.59,0.26,9.78,-9.55,0.09,-2.45,9.86
-1.91,-9.61,0.22,9.80,-9.55,0.08,-2.45,9.86
-1.94,-9.61,0.23,9.81,-9.56,0.05,-2.46,9.87
-1.92,-9.62,0.26,9.81,-9.54,0.07,-2.46,9.85
-1.92,-9.65,0.24,9.84,-9.58,0.09,-2.44,9.89
-1.96,-9.64,0.22,9.84,-9.56,0.07,-2.45,9.87
-1.90,-9.64,0.21,9.83,-9.58,0.12,-2.44,9.89
-1.92,-9.62,0.23,9.81,-9.54,0.09,-2.45,9.85
-1.94,-9.63,0.19,9.82,-9.55,0.13,-2.43,9.85
-1.89,-9.60,0.20,9.78,-9.58,0.08,-2.46,9.89
-1.91,-9.61,0.18,9.80,-9.57,0.10,-2.43,9.87
-1.91,-9.62,0.17,9.81,-9.54,0.08,-2.46,9.85
-1.92,-9.62,0.19,9.81,-9.53,0.08,-2.47,9.85
-1.92,-9.61,0.18,9.80,-9.56,0.07,-2.46,9.88
-1.89,-9.61,0.19,9.79,-9.53,0.08,-2.44,9.84
-1.91,-9.63,0.22,9.82,-9.57,0.08,-2.44,9.87
-1.90,-9.60,0.23,9.79,-9.56,0.06,-2.43,9.86
-1.91,-9.52,0.33,9.72,-9.54,0.09,-2.44,9.85
-1.93,-9.64,0.18,9.83,-9.56,0.09,-2.45,9.87
-1.95,-9.64,0.22,9.84,-9.59,0.12,-2.47,9.91
-1.94,-9.62,0.14,9.81,-9.56,0.08,-2.42,9.86
-1.95,-9.63,0.18,9.83,-9.60,0.11,-2.48,9.91
-1.92,-9.63,0.20,9.83,-9.53,0.10,-2.44,9.84
-1.94,-9.61,0.22,9.80,-9.52,0.10,-2.41,9.82
-1.92,-9.65,0.26,9.85,-9.53,0.09,-2.42,9.84
-1.95,-9.69,0.29,9.89,-9.60,0.09,-2.48,9.92
-1.96,-9.67,0.23,9.87,-9.56,0.11,-2.51,9.89
-1.95,-9.59,0.35,9.79,-9.52,0.07,-2.40,9.82
-1.86,-9.50,0.09,9.69,-9.54,0.09,-2.50,9.87
-1.88,-9.60,0.18,9.78,-9.56,0.06,-2.46,9.87
-1.85,-9.66,0.26,9.84,-9.53,0.06,-2.35,9.81
-1.85,-9.58,0.16,9.76,-9.56,0.10,-2.44,9.87
-1.98,-9.64,0.30,9.84,-9.49,0.08,-2.46,9.81
-1.96,-9.58,0.21,9.78,-9.52,0.12,-2.47,9.84
-1.97,-9.57,0.19,9.78,-9.52,0.15,-2.38,9.81
-1.94,-9.50,0.18,9.69,-9.56,0.12,-2.45,9.87
-1.94,-9.63,0.18,9.83,-9.55,0.16,-2.40,9.85
-1.98,-9.62,0.09,9.82,-9.61,0.13,-2.43,9.91
-1.90,-9.66,0.13,9.84,-9.61,0.12,-2.40,9.90
-1.87,-9.71,0.10,9.89,-9.66,0.12,-2.44,9.96
-1.88,-9.70,0.18,9.88,-9.59,0.09,-2.41,9.88
-1.93,-9.68,0.22,9.87,-9.58,0.10,-2.44,9.88
-1.93,-9.63,0.23,9.83,-9.55,0.09,-2.40,9.85
-1.95,-9.62,0.21,9.81,-9.55,0.10,-2.40,9.84
-1.96,-9.60,0.20,9.80,-9.56,0.12,-2.37,9.85
-1.94,-9.57,0.17,9.77,-9.55,0.10,-2.39,9.84
-1.92,-9.61,0.17,9.80,-9.52,0.09,-2.34,9.81
-1.88,-9.65,0.08,9.83,-9.55,0.10,-2.32,9.83
-1.90,-9.62,0.24,9.81,-9.53,0.09,-2.40,9.83
-1.90,-9.63,0.16,9.81,-9.53,0.07,-2.38,9.82
-1.91,-9.62,0.19,9.81,-9.53,0.10,-2.40,9.83
-1.93,-9.60,0.11,9.79,-9.59,0.13,-2.40,9.89
-1.97,-9.62,0.15,9.82,-9.56,0.10,-2.40,9.86
-1.96,-9.65,0.16,9.85,-9.57,0.12,-2.40,9.87
-1.88,-9.66,0.18,9.84,-9.60,0.10,-2.35,9.89
-1.94,-9.65,0.13,9.84,-9.59,0.11,-2.38,9.88
-1.94,-9.68,0.18,9.87,-9.62,0.12,-2.50,9.94
-1.94,-9.63,0.23,9.83,-9.61,0.10,-2.31,9.88
-1.93,-9.62,0.25,9.82,-9.59,0.12,-2.38,9.88
-1.92,-9.60,0.22,9.79,-9.56,0.08,-2.42,9.86
-1.92,-9.58,0.21,9.78,-9.51,0.10,-2.37,9.80
-1.93,-9.57,0.14,9.76,-9.54,0.11,-2.38,9.84
-1.89,-9.47,0.17,9.66,-9.57,0.13,-2.37,9.85
-1.87,-9.64,0.21,9.82,-9.57,0.09,-2.33,9.85
-1.88,-9.62,0.12,9.80,-9.60,0.08,-2.34,9.88
-1.89,-9.57,0.20,9.76,-9.59,0.09,-2.42,9.89
-1.92,-9.68,0.15,9.87,-9.57,0.09,-2.39,9.87
-1.89,-9.64,0.15,9.83,-9.56,0.12,-2.40,9.86
-1.93,-9.61,0.17,9.80,-9.56,0.08,-2.38,9.86
-1.92,-9.64,0.17,9.83,-9.59,0.11,-2.40,9.88
-1.93,-9.63,0.18,9.83,-9.58,0.10,-2.38,9.87
-1.92,-9.66,0.12,9.85,-9.53,0.11,-2.35,9.81
-1.93,-9.62,0.20,9.82,-9.59,0.07,-2.39,9.88
-1.89,-9.62,0.13,9.80,-9.57,0.09,-2.33,9.85
-1.88,-9.66,0.14,9.84,-9.60,0.09,-2.36,9.89
-1.93,-9.64,0.10,9.83,-9.59,0.09,-2.36,9.88
-1.91,-9.65,0.16,9.84,-9.61,0.09,-2.35,9.89
-1.91,-9.67,0.17,9.86,-9.57,0.10,-2.32,9.85
-1.92,-9.62,0.16,9.81,-9.57,0.12,-2.37,9.86
-1.93,-9.62,0.16,9.81,-9.56,0.12,-2.36,9.85
-1.90,-9.59,0.16,9.78,-9.54,0.10,-2.36,9.83
-1.89,-9.60,0.13,9.78,-9.58,0.09,-2.38,9.87
-1.91,-9.60,0.17,9.79,-9.53,0.10,-2.36,9.82
-1.90,-9.61,0.16,9.79,-9.57,0.10,-2.37,9.86
-1.91,-9.60,0.17,9.79,-9.57,0.14,-2.33,9.85
-1.91,-9.53,0.15,9.72,-9.56,0.11,-2.34,9.84
-1.90,-9.59,0.16,9.78,-9.60,0.10,-2.38,9.89
-1.89,-9.64,0.21,9.82,-9.57,0.10,-2.39,9.87
-1.92,-9.59,0.10,9.78,-9.57,0.09,-2.34,9.85
-1.88,-9.63,0.06,9.81,-9.57,0.08,-2.38,9.86
-1.90,-9.61,0.13,9.80,-9.57,0.07,-2.36,9.86
-1.90,-9.57,0.11,9.76,-9.56,0.11,-2.33,9.84
-1.91,-9.66,0.18,9.85,-9.58,0.13,-2.37,9.87
-1.91,-9.64,0.06,9.83,-9.58,0.11,-2.38,9.87
-1.90,-9.64,0.15,9.82,-9.58,0.13,-2.34,9.87
-1.91,-9.65,0.15,9.84,-9.61,0.09,-2.33,9.89
-1.87,-9.64,0.14,9.82,-9.62,0.10,-2.29,9.89
-1.91,-9.69,0.15,9.88,-9.64,0.12,-2.29,9.91
-2.05,-9.75,0.17,9.96,-9.64,0.13,-2.40,9.94
-1.93,-9.67,0.28,9.86,-9.55,0.09,-2.26,9.81
-1.90,-9.49,0.08,9.68,-9.57,0.12,-2.41,9.87
-1.85,-9.64,0.03,9.81,-9.61,0.09,-2.41,9.91
-1.87,-9.68,0.14,9.86,-9.53,0.10,-2.21,9.78
-1.85,-9.65,0.08,9.83,-9.60,0.10,-2.38,9.89
-1.94,-9.63,0.16,9.82,-9.56,0.12,-2.42,9.87
-1.94,-9.61,0.29,9.80,-9.55,0.10,-2.36,9.84
-1.93,-9.52,0.25,9.71,-9.55,0.09,-2.34,9.84
-1.92,-9.52,0.14,9.72,-9.58,0.12,-2.33,9.86
-1.95,-9.56,0.12,9.75,-9.55,0.14,-2.35,9.84
-1.96,-9.59,0.13,9.79,-9.57,0.15,-2.33,9.85
-1.92,-9.58,0.11,9.77,-9.60,0.14,-2.35,9.88
-1.91,-9.63,0.14,9.82,-9.63,0.09,-2.35,9.91
-1.91,-9.63,0.16,9.82,-9.60,0.09,-2.34,9.88
-1.89,-9.68,0.20,9.86,-9.59,0.09,-2.33,9.86
-1.93,-9.67,0.21,9.86,-9.58,0.11,-2.31,9.85
-1.94,-9.62,0.20,9.81,-9.57,0.12,-2.30,9.84
-1.89,-9.61,0.09,9.80,-9.57,0.12,-2.33,9.85
-1.94,-9.60,0.11,9.79,-9.57,0.13,-2.32,9.84
-1.90,-9.54,0.21,9.73,-9.56,0.10,-2.33,9.84
-1.94,-9.60,0.25,9.80,-9.58,0.09,-2.31,9.86
-1.92,-9.62,0.13,9.81,-9.57,0.10,-2.39,9.86
-1.91,-9.58,0.10,9.77,-9.51,0.10,-2.35,9.80
-1.91,-9.61,0.08,9.79,-9.52,0.09,-2.40,9.82
-1.91,-9.62,0.18,9.81,-9.56,0.08,-2.42,9.86
-1.89,-9.61,0.04,9.80,-9.57,0.08,-2.36,9.85
-1.88,-9.57,-0.01,9.75,-9.61,0.11,-2.37,9.90
-1.91,-9.56,0.27,9.75,-9.58,0.12,-2.37,9.87
-1.88,-9.67,0.18,9.85,-9.67,0.12,-2.35,9.95
-1.93,-9.67,-0.05,9.86,-9.60,0.14,-2.30,9.87
-1.95,-9.71,0.23,9.91,-9.67,0.13,-2.40,9.96
-1.92,-9.69,0.19,9.88,-9.65,0.10,-2.22,9.90
-1.90,-9.63,0.12,9.81,-9.61,0.10,-2.33,9.89
-1.91,-9.65,0.12,9.83,-9.59,0.10,-2.31,9.86
-1.96,-9.62,0.18,9.82,-9.59,0.13,-2.29,9.86
-1.95,-9.62,0.15,9.82,-9.62,0.16,-2.32,9.90
-1.91,-9.60,0.15,9.79,-9.60,0.13,-2.29,9.88
-1.88,-9.60,0.15,9.78,-9.57,0.12,-2.26,9.83
-1.89,-9.59,0.15,9.77,-9.53,0.09,-2.25,9.79
-1.91,-9.59,0.14,9.78,-9.59,0.11,-2.29,9.86
-1.91,-9.61,0.14,9.80,-9.55,0.11,-2.29,9.83
-1.94,-9.60,0.14,9.80,-9.57,0.13,-2.31,9.85
-1.93,-9.59,0.17,9.79,-9.55,0.11,-2.29,9.82
-1.94,-9.60,0.16,9.79,-9.59,0.13,-2.35,9.87
-1.94,-9.63,0.18,9.83,-9.57,0.10,-2.31,9.85
-1.94,-9.60,0.16,9.79,-9.60,0.12,-2.33,9.88
-1.93,-9.60,0.15,9.79,-9.58,0.13,-2.33,9.86
-1.92,-9.61,0.17,9.80,-9.57,0.12,-2.31,9.84
-1.90,-9.63,0.15,9.81,-9.59,0.08,-2.34,9.87
-1.88,-9.63,0.17,9.82,-9.60,0.10,-2.34,9.89
-1.92,-9.63,0.17,9.82,-9.57,0.10,-2.34,9.86
-1.93,-9.61,0.14,9.80,-9.58,0.11,-2.35,9.86
-1.90,-9.64,0.12,9.83,-9.60,0.13,-2.36,9.89
-1.91,-9.62,0.10,9.81,-9.60,0.09,-2.36,9.89
-1.92,-9.65,0.08,9.83,-9.61,0.10,-2.37,9.90
-1.90,-9.65,0.07,9.84,-9.60,0.08,-2.35,9.89
-1.90,-9.64,0.09,9.83,-9.59,0.10,-2.32,9.87
-1.93,-9.65,0.11,9.84,-9.58,0.08,-2.35,9.86
-1.89,-9.62,0.11,9.81,-9.60,0.10,-2.31,9.87
-1.91,-9.61,0.13,9.80,-9.58,0.13,-2.33,9.86
-1.88,-9.62,0.14,9.80,-9.56,0.11,-2.33,9.84
-1.92,-9.60,0.15,9.80,-9.58,0.12,-2.35,9.86
-1.89,-9.61,0.13,9.79,-9.57,0.13,-2.33,9.86
-1.90,-9.63,0.11,9.81,-9.61,0.14,-2.32,9.89
-1.92,-9.62,0.10,9.81,-9.57,0.14,-2.34,9.86
-1.89,-9.64,0.13,9.82,-9.58,0.14,-2.32,9.85
-1.90,-9.63,0.12,9.81,-9.60,0.12,-2.32,9.88
-1.94,-9.63,0.14,9.82,-9.60,0.14,-2.30,9.87
-1.92,-9.64,0.16,9.83,-9.60,0.14,-2.31,9.88
-1.92,-9.61,0.16,9.80,-9.58,0.08,-2.33,9.86
-1.91,-9.60,0.15,9.79,-9.62,0.13,-2.32,9.90
-1.94,-9.62,0.15,9.81,-9.58,0.12,-2.34,9.86
-1.96,-9.60,0.16,9.80,-9.61,0.12,-2.33,9.89
-1.94,-9.62,0.17,9.81,-9.58,0.11,-2.30,9.85
-1.90,-9.61,0.17,9.79,-9.57,0.09,-2.33,9.85
-1.94,-9.60,0.16,9.80,-9.55,0.10,-2.34,9.83
-1.92,-9.60,0.14,9.79,-9.58,0.09,-2.33,9.86
-1.90,-9.61,0.15,9.79,-9.60,0.10,-2.30,9.87
-1.87,-9.59,0.10,9.77,-9.58,0.12,-2.32,9.86
-1.90,-9.63,0.13,9.81,-9.61,0.13,-2.37,9.90
-2.03,-9.67,0.19,9.88,-9.63,0.14,-2.41,9.92
-1.98,-9.63,0.28,9.84,-9.57,0.14,-2.24,9.83
-1.95,-9.55,0.04,9.75,-9.57,0.13,-2.31,9.85
-1.85,-9.63,0.01,9.80,-9.56,0.11,-2.36,9.85
-1.91,-9.69,0.15,9.88,-9.52,0.12,-2.16,9.76
-1.88,-9.61,0.05,9.79,-9.62,0.14,-2.39,9.92
-1.95,-9.63,0.12,9.83,-9.62,0.13,-2.43,9.92
-1.97,-9.58,0.19,9.79,-9.56,0.14,-2.37,9.85
-1.94,-9.55,0.12,9.75,-9.57,0.10,-2.32,9.85
-1.96,-9.59,-0.03,9.79,-9.59,0.14,-2.35,9.87
-1.94,-9.64,-0.06,9.84,-9.52,0.16,-2.37,9.82
-1.95,-9.63,0.01,9.83,-9.57,0.14,-2.34,9.85
-1.93,-9.67,0.28,9.87,-9.63,0.12,-2.38,9.93
-1.91,-9.68,0.01,9.86,-9.66,0.12,-2.32,9.94
-1.90,-9.70,0.09,9.89,-9.61,0.11,-2.35,9.90
-1.90,-9.66,0.17,9.84,-9.59,0.08,-2.33,9.87
-1.90,-9.65,0.18,9.84,-9.57,0.12,-2.31,9.85
-1.93,-9.60,0.13,9.80,-9.58,0.11,-2.31,9.86
-1.94,-9.58,0.11,9.78,-9.56,0.12,-2.35,9.85
-1.93,-9.64,0.12,9.83,-9.57,0.12,-2.28,9.84
-1.92,-9.60,0.14,9.79,-9.58,0.11,-2.27,9.85
-1.93,-9.60,0.17,9.79,-9.59,0.11,-2.30,9.86
-1.88,-9.62,0.14,9.80,-9.60,0.12,-2.30,9.87
-1.90,-9.59,0.14,9.78,-9.60,0.13,-2.30,9.87
-1.91,-9.61,0.12,9.80,-9.59,0.11,-2.31,9.86
-1.96,-9.59,0.13,9.79,-9.57,0.13,-2.32,9.84
-1.93,-9.61,0.14,9.80,-9.57,0.12,-2.29,9.84
-1.91,-9.63,0.12,9.82,-9.58,0.15,-2.32,9.86
-1.93,-9.62,0.15,9.81,-9.61,0.14,-2.31,9.89
-1.90,-9.65,0.16,9.84,-9.62,0.13,-2.29,9.89
-1.95,-9.63,0.11,9.83,-9.60,0.16,-2.28,9.87
-1.98,-9.66,0.22,9.86,-9.69,0.16,-2.39,9.98
-1.93,-9.64,0.23,9.83,-9.60,0.10,-2.28,9.86
-1.94,-9.57,0.13,9.77,-9.59,0.11,-2.35,9.88
-1.94,-9.60,0.12,9.79,-9.56,0.11,-2.35,9.85
-1.97,-9.57,0.15,9.77,-9.53,0.13,-2.38,9.82
-1.96,-9.57,0.14,9.77,-9.56,0.13,-2.42,9.86
-1.90,-9.57,0.12,9.76,-9.52,0.14,-2.35,9.81
-1.88,-9.59,0.10,9.77,-9.53,0.10,-2.33,9.81
-1.90,-9.62,0.11,9.80,-9.59,0.10,-2.32,9.86
-1.90,-9.66,0.13,9.84,-9.60,0.10,-2.33,9.88
-1.93,-9.68,0.08,9.87,-9.63,0.12,-2.31,9.91
-1.91,-9.68,0.09,9.86,-9.62,0.11,-2.34,9.90
-1.94,-9.66,0.11,9.85,-9.59,0.09,-2.37,9.88
-1.95,-9.65,0.10,9.84,-9.62,0.12,-2.35,9.90
-1.94,-9.66,0.10,9.85,-9.61,0.09,-2.37,9.89
-1.91,-9.65,0.11,9.84,-9.60,0.12,-2.40,9.90
-1.90,-9.63,0.13,9.82,-9.55,0.12,-2.41,9.85
-1.91,-9.62,0.11,9.80,-9.55,0.11,-2.38,9.84
-1.89,-9.61,0.13,9.79,-9.60,0.09,-2.39,9.89
-1.91,-9.62,0.15,9.81,-9.56,0.09,-2.37,9.85
-1.90,-9.61,0.16,9.79,-9.55,0.09,-2.41,9.85
-1.90,-9.61,0.20,9.80,-9.59,0.12,-2.36,9.88
-1.93,-9.59,0.16,9.78,-9.58,0.09,-2.41,9.88
-1.92,-9.62,0.16,9.82,-9.58,0.14,-2.38,9.88
-1.92,-9.64,0.15,9.83,-9.60,0.10,-2.41,9.89
-1.88,-9.60,0.18,9.79,-9.55,0.12,-2.35,9.84
-1.90,-9.62,0.18,9.81,-9.54,0.08,-2.36,9.83
-1.90,-9.62,0.16,9.81,-9.56,0.10,-2.37,9.85
-1.89,-9.61,0.27,9.80,-9.55,0.09,-2.37,9.84
-1.93,-9.56,0.41,9.76,-9.55,0.06,-2.39,9.85
-1.89,-9.61,0.28,9.80,-9.57,0.06,-2.37,9.86
-1.90,-9.63,0.18,9.82,-9.58,0.09,-2.39,9.87
-1.86,-9.59,0.14,9.77,-9.59,0.10,-2.39,9.88
-1.88,-9.62,0.35,9.81,-9.59,0.12,-2.36,9.88
-1.90,-9.63,0.25,9.81,-9.56,0.09,-2.40,9.85
-1.93,-9.60,0.22,9.79,-9.58,0.08,-2.39,9.87
-1.93,-9.61,0.19,9.80,-9.58,0.11,-2.38,9.87
-1.95,-9.61,0.18,9.81,-9.55,0.11,-2.39,9.85
-1.94,-9.59,0.20,9.79,-9.61,0.12,-2.39,9.90
-1.93,-9.60,0.21,9.79,-9.56,0.09,-2.40,9.86
-1.93,-9.61,0.21,9.80,-9.57,0.11,-2.43,9.87
-1.88,-9.58,0.14,9.77,-9.55,0.12,-2.42,9.86
-1.91,-9.61,0.23,9.80,-9.54,0.11,-2.42,9.84
-1.91,-9.60,0.20,9.79,-9.57,0.09,-2.44,9.87
-1.94,-9.58,0.23,9.78,-9.52,0.11,-2.39,9.82
-1.91,-9.62,0.23,9.81,-9.55,0.12,-2.40,9.85
-1.91,-9.63,0.19,9.82,-9.58,0.08,-2.41,9.88
-1.92,-9.63,0.16,9.82,-9.59,0.08,-2.45,9.90
-1.93,-9.64,0.22,9.84,-9.58,0.06,-2.44,9.89
-1.90,-9.61,0.16,9.80,-9.55,0.06,-2.45,9.86
-1.86,-9.62,0.17,9.79,-9.54,0.05,-2.44,9.85
-1.89,-9.67,0.29,9.86,-9.53,0.08,-2.48,9.85
-1.95,-9.70,0.29,9.90,-9.60,0.09,-2.50,9.92
-1.87,-9.58,0.25,9.76,-9.52,0.07,-2.35,9.80
-1.86,-9.48,0.12,9.66,-9.55,0.10,-2.49,9.87
-1.88,-9.66,0.20,9.84,-9.55,0.06,-2.37,9.84
-1.86,-9.66,0.18,9.84,-9.52,0.07,-2.34,9.81
-1.85,-9.62,0.19,9.80,-9.61,0.11,-2.61,9.96
-1.96,-9.60,0.23,9.80,-9.51,0.05,-2.50,9.83
-1.96,-9.61,0.42,9.81,-9.51,0.08,-2.47,9.83
-1.93,-9.54,0.08,9.73,-9.52,0.12,-2.43,9.83
-1.94,-9.56,0.08,9.76,-9.50,0.11,-2.46,9.81
-1.94,-9.63,0.20,9.83,-9.56,0.12,-2.49,9.88
-1.91,-9.66,0.37,9.85,-9.60,0.12,-2.45,9.91
-1.87,-9.65,0.18,9.83,-9.62,0.09,-2.46,9.93
-1.88,-9.75,0.25,9.94,-9.63,0.05,-2.42,9.93
-1.92,-9.69,0.25,9.88,-9.59,0.06,-2.46,9.90
-1.93,-9.60,0.46,9.81,-9.58,0.08,-2.44,9.89
-1.95,-9.57,0.22,9.77,-9.57,0.10,-2.46,9.88
-1.91,-9.59,0.36,9.79,-9.54,0.12,-2.40,9.84
-1.90,-9.63,0.18,9.82,-9.56,0.08,-2.44,9.86
-1.90,-9.59,0.26,9.78,-9.55,0.08,-2.39,9.84
-1.87,-9.61,0.27,9.79,-9.53,0.06,-2.43,9.83
-1.85,-9.61,0.20,9.79,-9.54,0.05,-2.46,9.86
-1.84,-9.58,0.21,9.76,-9.48,0.04,-2.45,9.79
-1.89,-9.58,0.29,9.76,-9.52,0.08,-2.46,9.83
-1.90,-9.55,0.27,9.74,-9.54,0.06,-2.47,9.85
-1.91,-9.61,0.28,9.80,-9.51,0.09,-2.46,9.83
-1.93,-9.63,0.27,9.82,-9.54,0.08,-2.47,9.85
-1.93,-9.64,0.24,9.83,-9.56,0.08,-2.48,9.87
-1.86,-9.64,0.24,9.82,-9.60,0.07,-2.47,9.91
-1.89,-9.66,0.18,9.85,-9.56,0.06,-2.40,9.86
-1.90,-9.69,0.28,9.88,-9.56,0.05,-2.56,9.90
-1.90,-9.64,0.28,9.83,-9.57,0.05,-2.39,9.86
-1.88,-9.62,0.24,9.80,-9.55,0.03,-2.48,9.87
-1.91,-9.66,0.28,9.85,-9.52,0.05,-2.44,9.83
-1.91,-9.60,0.25,9.79,-9.56,0.07,-2.45,9.87
-1.90,-9.61,0.22,9.80,-9.55,0.09,-2.42,9.86
-1.89,-9.63,0.26,9.81,-9.58,0.11,-2.42,9.88
-1.87,-9.61,0.27,9.80,-9.58,0.10,-2.45,9.89
-1.88,-9.67,0.24,9.86,-9.57,0.08,-2.45,9.88
-1.91,-9.61,0.18,9.80,-9.56,0.05,-2.48,9.87
-1.88,-9.62,0.36,9.81,-9.54,0.08,-2.48,9.86
-1.88,-9.64,0.31,9.82,-9.52,0.04,-2.50,9.84
-1.86,-9.62,0.20,9.80,-9.51,0.03,-2.52,9.84
-1.87,-9.59,0.24,9.78,-9.52,0.05,-2.51,9.84
-1.86,-9.60,0.20,9.78,-9.52,0.04,-2.50,9.85
-1.88,-9.60,0.23,9.78,-9.51,0.06,-2.48,9.83
-1.89,-9.59,0.24,9.78,-9.53,0.06,-2.47,9.85
-1.87,-9.60,0.27,9.79,-9.55,0.04,-2.45,9.86
-1.91,-9.63,0.28,9.82,-9.53,0.04,-2.47,9.84
-1.90,-9.64,0.25,9.83,-9.55,0.04,-2.46,9.87
-1.91,-9.62,0.26,9.81,-9.57,0.05,-2.46,9.88
-1.91,-9.65,0.27,9.84,-9.55,0.04,-2.47,9.87
-1.92,-9.64,0.26,9.83,-9.55,0.04,-2.47,9.86
-1.85,-9.62,0.23,9.80,-9.54,0.04,-2.53,9.87
-1.84,-9.63,0.25,9.80,-9.56,0.07,-2.49,9.88
-1.82,-9.62,0.26,9.79,-9.52,0.06,-2.49,9.84
-1.83,-9.60,0.26,9.78,-9.51,-0.01,-2.50,9.84
-1.84,-9.61,0.26,9.79,-9.52,0.02,-2.44,9.83
-1.87,-9.60,0.25,9.78,-9.54,0.04,-2.48,9.86
-1.87,-9.63,0.27,9.82,-9.55,0.01,-2.49,9.87
-1.90,-9.61,0.26,9.80,-9.54,0.03,-2.47,9.85
-1.88,-9.59,0.25,9.78,-9.52,0.06,-2.47,9.83
-1.92,-9.64,0.28,9.83,-9.53,0.02,-2.50,9.85
-1.90,-9.61,0.27,9.80,-9.52,0.05,-2.48,9.84
-1.88,-9.62,0.26,9.81,-9.52,0.04,-2.48,9.84
-1.87,-9.60,0.28,9.79,-9.52,0.06,-2.45,9.83
-1.91,-9.60,0.28,9.80,-9.55,0.08,-2.46,9.87
-1.90,-9.60,0.28,9.79,-9.56,0.06,-2.45,9.87
-1.90,-9.62,0.25,9.81,-9.56,0.04,-2.46,9.87
-1.87,-9.63,0.26,9.82,-9.55,0.05,-2.47,9.86
-1.86,-9.62,0.26,9.80,-9.56,0.05,-2.49,9.88
-1.86,-9.63,0.25,9.82,-9.57,0.05,-2.46,9.89
-1.86,-9.63,0.25,9.82,-9.55,0.02,-2.46,9.86
-1.84,-9.62,0.19,9.79,-9.55,0.06,-2.46,9.87
-1.84,-9.63,0.20,9.81,-9.54,0.05,-2.49,9.86
-1.95,-9.68,0.25,9.88,-9.56,0.07,-2.53,9.89
-1.91,-9.66,0.39,9.86,-9.54,0.06,-2.50,9.86
-1.90,-9.60,0.32,9.79,-9.50,0.05,-2.39,9.80
-1.80,-9.55,0.22,9.72,-9.55,0.06,-2.51,9.87
-1.84,-9.66,0.20,9.84,-9.53,0.02,-2.41,9.83
-1.82,-9.64,0.29,9.81,-9.58,0.03,-2.41,9.88
-1.88,-9.60,0.23,9.79,-9.57,0.05,-2.54,9.90
-1.90,-9.60,0.25,9.79,-9.50,0.04,-2.48,9.81
-1.94,-9.60,0.23,9.80,-9.50,0.09,-2.43,9.81
-1.92,-9.57,0.21,9.76,-9.52,0.09,-2.42,9.83
-1.91,-9.57,0.07,9.76,-9.55,0.08,-2.41,9.85
-1.92,-9.66,0.11,9.85,-9.57,0.09,-2.45,9.88
-1.84,-9.66,0.23,9.83,-9.59,0.06,-2.41,9.89
-1.80,-9.65,0.19,9.82,-9.61,0.03,-2.45,9.92
-1.80,-9.71,0.24,9.88,-9.62,0.05,-2.41,9.92
-1.84,-9.67,0.23,9.85,-9.59,0.06,-2.43,9.89
-1.91,-9.68,0.27,9.87,-9.55,0.08,-2.41,9.85
-1.91,-9.62,0.23,9.81,-9.57,0.08,-2.43,9.88
-1.94,-9.62,0.22,9.82,-9.58,0.09,-2.43,9.88
-1.92,-9.58,0.21,9.77,-9.57,0.07,-2.41,9.87
-1.89,-9.53,0.13,9.72,-9.54,0.09,-2.38,9.83
-1.91,-9.60,0.20,9.79,-9.56,0.06,-2.39,9.85
-1.85,-9.67,0.14,9.85,-9.56,0.06,-2.41,9.86
-1.86,-9.61,0.16,9.79,-9.52,0.06,-2.43,9.82
-1.89,-9.61,0.28,9.79,-9.55,0.06,-2.45,9.86
-1.89,-9.61,0.22,9.80,-9.53,0.06,-2.43,9.84
-1.89,-9.61,0.23,9.80,-9.56,0.08,-2.42,9.86
-1.92,-9.63,0.25,9.83,-9.57,0.09,-2.40,9.86
-1.89,-9.62,0.21,9.81,-9.57,0.07,-2.41,9.87
-1.84,-9.67,0.19,9.84,-9.61,0.09,-2.39,9.90
-1.90,-9.61,0.17,9.80,-9.60,0.10,-2.47,9.92
-1.92,-9.68,0.24,9.88,-9.55,0.07,-2.42,9.85
-1.87,-9.63,0.27,9.81,-9.61,0.10,-2.36,9.89
-1.89,-9.63,0.26,9.82,-9.56,0.04,-2.40,9.85
-1.90,-9.59,0.23,9.78,-9.54,0.09,-2.47,9.85
-1.91,-9.57,0.21,9.76,-9.53,0.10,-2.42,9.83
-1.89,-9.58,0.12,9.76,-9.57,0.08,-2.43,9.87
-1.86,-9.63,0.16,9.81,-9.57,0.09,-2.35,9.85
-1.85,-9.60,0.19,9.78,-9.59,0.06,-2.39,9.88
-1.83,-9.62,0.19,9.79,-9.54,0.06,-2.37,9.83
-1.86,-9.60,0.24,9.78,-9.54,0.07,-2.39,9.84
-1.90,-9.64,0.31,9.83,-9.55,0.07,-2.44,9.86
-1.90,-9.62,0.23,9.81,-9.55,0.09,-2.42,9.85
-1.90,-9.64,0.19,9.83,-9.54,0.11,-2.41,9.84
-1.90,-9.65,0.23,9.83,-9.59,0.09,-2.41,9.89
-1.91,-9.62,0.10,9.80,-9.59,0.13,-2.40,9.89
-1.90,-9.62,0.19,9.81,-9.58,0.10,-2.41,9.88
-1.89,-9.64,0.20,9.82,-9.55,0.07,-2.39,9.84
-1.91,-9.62,0.21,9.81,-9.59,0.12,-2.38,9.88
-1.88,-9.63,0.18,9.82,-9.58,0.09,-2.39,9.88
-1.91,-9.61,0.21,9.80,-9.58,0.10,-2.39,9.88
-1.89,-9.62,0.20,9.80,-9.60,0.09,-2.40,9.90
-1.90,-9.62,0.22,9.81,-9.58,0.10,-2.39,9.87
-1.90,-9.61,0.22,9.80,-9.56,0.10,-2.42,9.86
-1.89,-9.63,0.22,9.81,-9.56,0.09,-2.38,9.86
-1.90,-9.62,0.21,9.81,-9.57,0.12,-2.40,9.86
-1.87,-9.63,0.18,9.81,-9.57,0.09,-2.42,9.87
-1.89,-9.60,0.19,9.78,-9.53,0.10,-2.38,9.82
-1.88,-9.64,0.14,9.82,-9.58,0.10,-2.41,9.88
-1.89,-9.65,0.20,9.83,-9.56,0.08,-2.39,9.85
-1.85,-9.61,0.17,9.79,-9.58,0.05,-2.37,9.87
-1.90,-9.60,0.12,9.79,-9.55,0.09,-2.34,9.84
-1.87,-9.63,0.27,9.81,-9.58,0.07,-2.38,9.87
-1.88,-9.61,0.22,9.79,-9.60,0.09,-2.35,9.89
-1.88,-9.63,0.25,9.81,-9.60,0.08,-2.36,9.88
-1.90,-9.64,0.20,9.83,-9.57,0.09,-2.35,9.86
-1.89,-9.63,0.20,9.82,-9.59,0.08,-2.37,9.88
-1.89,-9.63,0.21,9.81,-9.56,0.09,-2.36,9.85
-1.85,-9.65,0.18,9.83,-9.58,0.05,-2.36,9.86
-1.89,-9.60,0.24,9.79,-9.58,0.11,-2.37,9.87
-1.87,-9.61,0.27,9.80,-9.59,0.09,-2.36,9.87
-1.88,-9.62,0.14,9.80,-9.59,0.08,-2.35,9.87
-1.90,-9.61,0.16,9.80,-9.59,0.09,-2.35,9.88
-1.90,-9.64,0.18,9.83,-9.59,0.07,-2.34,9.87
-1.90,-9.67,0.21,9.86,-9.56,0.09,-2.33,9.84
-1.86,-9.63,0.17,9.81,-9.60,0.08,-2.34,9.88
-1.86,-9.57,0.11,9.75,-9.57,0.11,-2.35,9.85
-1.99,-9.69,0.36,9.90,-9.62,0.13,-2.42,9.92
-1.96,-9.70,0.38,9.91,-9.55,0.07,-2.25,9.81
-1.87,-9.53,0.14,9.71,-9.58,0.11,-2.33,9.86
-1.84,-9.61,0.06,9.79,-9.61,0.08,-2.42,9.91
-1.87,-9.68,0.06,9.86,-9.51,0.07,-2.24,9.77
-1.85,-9.62,0.18,9.80,-9.60,0.09,-2.39,9.89
-1.91,-9.66,0.21,9.85,-9.59,0.08,-2.45,9.90
-1.94,-9.62,0.33,9.82,-9.52,0.11,-2.37,9.81
-1.89,-9.54,0.27,9.73,-9.56,0.07,-2.37,9.85
-1.87,-9.55,0.18,9.73,-9.54,0.08,-2.31,9.81
-1.92,-9.59,0.12,9.78,-9.57,0.10,-2.37,9.86
-1.94,-9.60,0.15,9.80,-9.57,0.12,-2.32,9.84
-1.90,-9.62,0.29,9.81,-9.63,0.13,-2.31,9.91
-1.88,-9.70,0.19,9.88,-9.68,0.13,-2.36,9.96
-1.86,-9.71,0.17,9.88,-9.64,0.06,-2.31,9.92
-1.86,-9.71,0.17,9.88,-9.65,0.06,-2.33,9.92
-1.92,-9.68,0.22,9.87,-9.60,0.12,-2.31,9.87
-1.88,-9.61,0.18,9.79,-9.59,0.10,-2.30,9.86
-1.89,-9.62,0.17,9.80,-9.57,0.12,-2.34,9.85
-1.91,-9.63,0.16,9.82,-9.58,0.08,-2.28,9.85
-1.90,-9.61,0.15,9.80,-9.56,0.09,-2.30,9.84
-1.91,-9.62,0.15,9.81,-9.56,0.09,-2.31,9.83
-1.87,-9.60,0.18,9.78,-9.58,0.08,-2.29,9.85
-1.87,-9.61,0.34,9.80,-9.59,0.07,-2.32,9.87
-1.88,-9.63,0.12,9.81,-9.58,0.07,-2.30,9.85
-1.87,-9.61,0.12,9.79,-9.57,0.11,-2.32,9.85
-1.90,-9.57,0.14,9.76,-9.57,0.10,-2.30,9.85
-1.88,-9.56,0.24,9.74,-9.58,0.13,-2.31,9.86
-1.90,-9.64,0.17,9.83,-9.57,0.09,-2.34,9.85
-1.88,-9.69,0.25,9.87,-9.66,0.09,-2.30,9.93
-1.90,-9.64,0.02,9.83,-9.59,0.13,-2.30,9.86
-1.95,-9.68,0.17,9.88,-9.60,0.11,-2.35,9.89
-1.92,-9.69,0.24,9.88,-9.61,0.09,-2.25,9.87
-1.85,-9.60,0.21,9.78,-9.59,0.06,-2.31,9.86
-1.88,-9.60,0.15,9.79,-9.56,0.08,-2.34,9.84
-1.90,-9.59,0.16,9.78,-9.54,0.11,-2.29,9.82
-1.92,-9.58,0.16,9.77,-9.56,0.13,-2.32,9.83
-1.89,-9.60,0.16,9.79,-9.59,0.11,-2.30,9.86
-1.84,-9.61,0.15,9.78,-9.60,0.12,-2.31,9.87
-1.85,-9.62,0.14,9.79,-9.56,0.08,-2.27,9.83
-1.85,-9.64,0.23,9.82,-9.57,0.08,-2.32,9.85
-1.86,-9.58,0.15,9.76,-9.61,0.11,-2.33,9.89
-1.90,-9.71,0.18,9.90,-9.58,0.14,-2.32,9.85
-1.90,-9.68,0.12,9.86,-9.58,0.13,-2.34,9.87
-1.90,-9.64,0.08,9.83,-9.58,0.11,-2.34,9.87
-1.91,-9.63,0.14,9.82,-9.60,0.10,-2.31,9.87
-1.91,-9.60,0.17,9.79,-9.59,0.08,-2.36,9.87
-1.89,-9.60,0.15,9.79,-9.59,0.10,-2.31,9.86
-1.89,-9.60,0.17,9.78,-9.58,0.11,-2.33,9.86
-1.87,-9.64,0.19,9.82,-9.57,0.10,-2.31,9.85
-1.89,-9.66,0.15,9.84,-9.61,0.10,-2.31,9.89
-1.89,-9.63,0.17,9.81,-9.60,0.08,-2.34,9.89
-1.90,-9.60,0.18,9.79,-9.58,0.12,-2.30,9.85
-1.93,-9.60,0.15,9.80,-9.60,0.09,-2.30,9.87
-1.90,-9.63,0.16,9.81,-9.57,0.09,-2.32,9.85
-1.90,-9.62,0.15,9.80,-9.60,0.10,-2.32,9.88
-1.87,-9.62,0.16,9.80,-9.58,0.11,-2.30,9.85
-1.90,-9.61,0.18,9.80,-9.58,0.08,-2.33,9.86
-1.88,-9.61,0.19,9.79,-9.57,0.11,-2.30,9.85
-1.85,-9.63,0.17,9.81,-9.57,0.11,-2.33,9.85
-1.89,-9.62,0.17,9.81,-9.55,0.09,-2.29,9.82
-1.89,-9.60,0.18,9.79,-9.58,0.08,-2.32,9.86
-1.88,-9.63,0.17,9.82,-9.62,0.11,-2.28,9.88
-1.90,-9.62,0.16,9.81,-9.60,0.11,-2.28,9.87
-1.86,-9.63,0.18,9.81,-9.63,0.11,-2.26,9.89
-1.91,-9.64,0.18,9.83,-9.61,0.11,-2.30,9.88
-1.89,-9.62,0.16,9.81,-9.60,0.12,-2.27,9.87
-1.89,-9.65,0.18,9.83,-9.60,0.09,-2.29,9.87
-1.91,-9.62,0.17,9.81,-9.59,0.10,-2.31,9.86
-1.89,-9.61,0.14,9.79,-9.56,0.11,-2.29,9.83
-1.90,-9.64,0.14,9.82,-9.58,0.10,-2.28,9.85
-1.88,-9.61,0.14,9.80,-9.61,0.10,-2.30,9.88
-1.90,-9.63,0.14,9.81,-9.60,0.11,-2.33,9.88
-1.88,-9.64,0.16,9.83,-9.59,0.12,-2.31,9.86
-1.91,-9.62,0.17,9.81,-9.61,0.14,-2.30,9.88
-1.90,-9.60,0.18,9.79,-9.57,0.10,-2.32,9.85
-1.87,-9.61,0.16,9.80,-9.57,0.10,-2.35,9.85
-1.87,-9.61,0.13,9.79,-9.59,0.10,-2.31,9.86
-1.89,-9.63,0.16,9.82,-9.59,0.09,-2.33,9.87
-1.87,-9.64,0.19,9.82,-9.57,0.11,-2.27,9.83
-1.84,-9.62,0.17,9.80,-9.58,0.07,-2.29,9.85
-1.89,-9.65,0.19,9.84,-9.58,0.07,-2.30,9.85
-1.97,-9.66,0.28,9.86,-9.63,0.10,-2.30,9.91
-1.92,-9.60,0.29,9.79,-9.54,0.09,-2.13,9.78
-1.83,-9.52,0.08,9.69,-9.60,0.09,-2.32,9.87
-1.80,-9.67,0.04,9.83,-9.57,0.09,-2.24,9.83
-1.84,-9.68,0.14,9.85,-9.60,0.07,-2.18,9.84
-1.86,-9.67,0.14,9.85,-9.64,0.12,-2.37,9.93
-1.95,-9.68,0.28,9.88,-9.60,0.11,-2.40,9.90
-1.92,-9.59,0.24,9.78,-9.59,0.17,-2.32,9.87
-1.87,-9.54,0.16,9.73,-9.54,0.11,-2.26,9.81
-1.90,-9.55,0.10,9.74,-9.60,0.09,-2.36,9.88
-1.93,-9.58,0.12,9.77,-9.56,0.15,-2.31,9.83
-1.92,-9.61,0.20,9.81,-9.62,0.16,-2.27,9.89
-1.90,-9.65,0.05,9.84,-9.66,0.13,-2.27,9.92
-1.88,-9.68,0.13,9.86,-9.66,0.11,-2.32,9.93
-1.89,-9.75,0.28,9.94,-9.66,0.09,-2.29,9.93
-1.91,-9.69,0.20,9.87,-9.63,0.11,-2.29,9.90
-1.90,-9.62,0.11,9.81,-9.56,0.11,-2.23,9.82
-1.89,-9.60,0.14,9.79,-9.58,0.11,-2.29,9.85
-1.88,-9.59,0.14,9.78,-9.59,0.14,-2.25,9.85
-1.88,-9.60,0.16,9.79,-9.60,0.11,-2.27,9.87
-1.89,-9.59,0.17,9.78,-9.59,0.08,-2.20,9.84
-1.86,-9.60,0.13,9.78,-9.59,0.10,-2.23,9.85
-1.88,-9.62,0.16,9.80,-9.57,0.10,-2.29,9.84
-1.88,-9.62,0.13,9.80,-9.60,0.11,-2.27,9.87
-1.89,-9.61,0.12,9.79,-9.58,0.11,-2.24,9.84
-1.87,-9.61,0.15,9.79,-9.58,0.11,-2.26,9.85
-1.91,-9.62,0.13,9.80,-9.60,0.12,-2.27,9.86
-1.91,-9.65,0.13,9.83,-9.64,0.11,-2.29,9.91
-1.91,-9.64,0.16,9.83,-9.64,0.14,-2.23,9.89
-1.83,-9.65,0.20,9.83,-9.61,0.13,-2.24,9.87
-1.91,-9.63,0.10,9.82,-9.59,0.13,-2.24,9.85
-1.92,-9.68,0.23,9.87,-9.64,0.12,-2.34,9.92
-1.88,-9.64,0.21,9.83,-9.64,0.10,-2.20,9.89
-1.85,-9.58,0.14,9.76,-9.59,0.12,-2.28,9.86
-1.91,-9.64,0.17,9.83,-9.58,0.13,-2.27,9.84
-1.95,-9.59,0.15,9.79,-9.57,0.13,-2.26,9.84
-1.89,-9.60,0.13,9.79,-9.59,0.11,-2.31,9.87
-1.89,-9.57,0.12,9.76,-9.55,0.14,-2.30,9.83
-1.87,-9.62,0.11,9.80,-9.58,0.10,-2.30,9.85
-1.87,-9.63,0.12,9.81,-9.59,0.12,-2.25,9.85
-1.87,-9.66,0.12,9.84,-9.60,0.11,-2.29,9.87
-1.89,-9.68,0.14,9.86,-9.59,0.15,-2.28,9.86
-1.89,-9.68,0.12,9.87,-9.65,0.12,-2.33,9.93
-1.90,-9.67,0.11,9.85,-9.66,0.13,-2.26,9.93
-1.91,-9.67,0.12,9.85,-9.61,0.11,-2.28,9.88
-1.90,-9.63,0.16,9.82,-9.64,0.12,-2.28,9.90
-1.90,-9.63,0.14,9.82,-9.63,0.11,-2.27,9.89
-1.90,-9.63,0.15,9.82,-9.58,0.14,-2.27,9.84
-1.89,-9.63,0.14,9.82,-9.61,0.10,-2.29,9.88
-1.85,-9.66,0.13,9.83,-9.59,0.10,-2.31,9.86
-1.87,-9.66,0.14,9.84,-9.60,0.10,-2.29,9.87
-1.85,-9.65,0.15,9.82,-9.60,0.13,-2.29,9.87
-1.84,-9.65,0.15,9.82,-9.59,0.13,-2.32,9.87
-1.89,-9.61,0.14,9.80,-9.60,0.13,-2.31,9.88
-1.88,-9.61,0.16,9.80,-9.57,0.11,-2.33,9.85
-1.90,-9.63,0.18,9.81,-9.59,0.13,-2.31,9.86
-1.90,-9.60,0.17,9.79,-9.55,0.10,-2.33,9.83
-1.88,-9.63,0.19,9.82,-9.58,0.11,-2.32,9.86
-1.90,-9.63,0.18,9.81,-9.55,0.12,-2.30,9.83
-1.90,-9.60,0.14,9.79,-9.59,0.12,-2.31,9.86
-1.89,-9.73,0.24,9.91,-9.60,0.10,-2.31,9.88
-1.89,-9.60,0.12,9.78,-9.63,0.11,-2.31,9.90
-1.88,-9.63,0.20,9.82,-9.58,0.12,-2.32,9.86
-1.89,-9.71,0.20,9.89,-9.60,0.09,-2.34,9.88
-1.90,-9.62,0.21,9.81,-9.60,0.13,-2.37,9.89
-1.87,-9.61,0.14,9.79,-9.58,0.10,-2.34,9.86
-1.92,-9.62,0.19,9.81,-9.58,0.08,-2.35,9.87
-1.88,-9.62,0.23,9.81,-9.59,0.11,-2.35,9.88
-1.90,-9.62,0.23,9.81,-9.55,0.11,-2.37,9.84
-1.89,-9.65,0.18,9.84,-9.58,0.11,-2.35,9.86
-1.90,-9.62,0.16,9.81,-9.59,0.12,-2.37,9.88
-1.88,-9.63,0.28,9.81,-9.59,0.12,-2.32,9.87
-1.88,-9.64,0.27,9.83,-9.60,0.09,-2.32,9.88
-1.91,-9.65,0.23,9.84,-9.60,0.11,-2.30,9.87
-1.94,-9.61,0.22,9.80,-9.57,0.12,-2.35,9.86
-1.91,-9.68,0.18,9.86,-9.58,0.11,-2.39,9.88
-1.88,-9.66,0.13,9.84,-9.58,0.10,-2.38,9.87
-1.91,-9.63,0.28,9.82,-9.57,0.14,-2.39,9.87
-1.90,-9.60,0.23,9.79,-9.55,0.11,-2.34,9.84
-1.88,-9.60,0.17,9.79,-9.58,0.15,-2.37,9.87
-1.89,-9.63,0.16,9.81,-9.58,0.13,-2.39,9.87
-2.00,-9.73,0.31,9.94,-9.63,0.14,-2.44,9.94
-1.94,-9.67,0.37,9.87,-9.55,0.09,-2.25,9.82
-1.85,-9.51,0.20,9.69,-9.59,0.10,-2.44,9.89
-1.85,-9.63,0.12,9.81,-9.57,0.07,-2.45,9.88
-1.87,-9.69,0.22,9.87,-9.52,0.06,-2.21,9.78
-1.81,-9.61,0.13,9.79,-9.59,0.10,-2.47,9.91
-1.88,-9.63,0.24,9.82,-9.51,0.08,-2.48,9.83
-1.90,-9.58,0.22,9.77,-9.53,0.10,-2.40,9.83
-1.89,-9.55,0.24,9.74,-9.52,0.12,-2.37,9.81
-1.89,-9.55,0.10,9.74,-9.51,0.11,-2.34,9.79
-1.92,-9.65,0.12,9.84,-9.58,0.14,-2.41,9.88
-1.93,-9.68,0.22,9.87,-9.60,0.10,-2.36,9.89
-1.85,-9.71,0.26,9.89,-9.65,0.10,-2.36,9.93
-1.84,-9.71,0.24,9.89,-9.65,0.09,-2.36,9.93
-1.88,-9.77,0.19,9.95,-9.62,0.06,-2.36,9.90
-1.88,-9.68,0.12,9.86,-9.64,0.07,-2.37,9.92
-1.88,-9.70,0.21,9.88,-9.58,0.10,-2.37,9.87
-1.88,-9.60,0.16,9.79,-9.54,0.11,-2.37,9.83
-1.88,-9.61,0.16,9.80,-9.55,0.10,-2.37,9.84
-1.92,-9.61,0.17,9.80,-9.53,0.09,-2.40,9.83
-1.88,-9.55,0.17,9.73,-9.50,0.07,-2.40,9.80
-1.86,-9.60,0.35,9.78,-9.51,0.07,-2.37,9.81
-1.83,-9.57,0.30,9.75,-9.52,0.06,-2.42,9.82
-1.86,-9.64,0.26,9.82,-9.55,0.07,-2.43,9.85
-1.90,-9.61,0.17,9.80,-9.56,0.07,-2.41,9.86
-1.90,-9.61,0.22,9.80,-9.58,0.10,-2.38,9.88
-1.90,-9.64,0.30,9.83,-9.61,0.08,-2.41,9.91
-1.94,-9.66,0.23,9.85,-9.61,0.10,-2.40,9.91
-1.85,-9.67,0.15,9.85,-9.63,0.11,-2.41,9.93
-1.87,-9.66,0.26,9.85,-9.57,0.09,-2.37,9.86
-1.90,-9.65,0.05,9.84,-9.59,0.09,-2.48,9.91
-1.88,-9.69,0.35,9.88,-9.57,0.05,-2.45,9.88
-1.85,-9.63,0.32,9.81,-9.54,0.12,-2.43,9.85
-1.89,-9.54,0.32,9.73,-9.52,0.06,-2.44,9.83
-1.86,-9.54,0.25,9.72,-9.52,0.10,-2.45,9.83
-1.89,-9.59,0.24,9.78,-9.52,0.07,-2.41,9.82
-1.87,-9.64,0.23,9.82,-9.57,0.12,-2.39,9.86
-1.85,-9.61,0.24,9.79,-9.56,0.10,-2.38,9.85
-1.86,-9.64,0.15,9.82,-9.55,0.07,-2.40,9.84
-1.85,-9.66,0.21,9.84,-9.55,0.03,-2.45,9.86
-1.85,-9.65,0.15,9.83,-9.54,0.07,-2.46,9.86
-1.87,-9.64,0.15,9.82,-9.52,0.07,-2.46,9.83
-1.88,-9.62,0.16,9.80,-9.52,0.06,-2.46,9.83
-1.87,-9.61,0.28,9.79,-9.50,0.06,-2.44,9.81
-1.90,-9.62,0.23,9.81,-9.58,0.08,-2.45,9.89
-1.90,-9.61,0.26,9.80,-9.56,0.06,-2.44,9.86
-1.87,-9.62,0.23,9.80,-9.58,0.08,-2.42,9.88
-1.87,-9.63,0.25,9.81,-9.57,0.07,-2.43,9.87
-1.87,-9.66,0.24,9.84,-9.57,0.05,-2.43,9.87
-1.90,-9.64,0.25,9.83,-9.58,0.06,-2.45,9.89
-1.89,-9.69,0.18,9.87,-9.57,0.08,-2.46,9.88
-1.88,-9.64,0.22,9.82,-9.55,0.06,-2.50,9.87
-1.90,-9.62,0.25,9.80,-9.54,0.08,-2.47,9.85
-1.88,-9.58,0.33,9.77,-9.54,0.09,-2.50,9.86
-1.87,-9.59,0.29,9.78,-9.55,0.13,-2.48,9.87
-1.88,-9.58,0.27,9.77,-9.54,0.09,-2.47,9.86
-1.88,-9.60,0.29,9.78,-9.54,0.06,-2.48,9.85
-1.87,-9.60,0.27,9.78,-9.54,0.09,-2.48,9.86
-1.90,-9.60,0.22,9.78,-9.54,0.06,-2.44,9.85
-1.86,-9.59,0.24,9.77,-9.54,0.05,-2.43,9.84
-1.86,-9.61,0.28,9.79,-9.54,0.06,-2.43,9.84
-1.88,-9.61,0.29,9.80,-9.52,0.05,-2.46,9.83
-1.88,-9.60,0.29,9.78,-9.52,0.05,-2.47,9.84
-1.88,-9.61,0.26,9.80,-9.53,0.07,-2.46,9.85
-1.90,-9.61,0.30,9.80,-9.55,0.08,-2.44,9.86
-1.90,-9.61,0.29,9.80,-9.58,0.06,-2.43,9.88
-1.90,-9.64,0.27,9.82,-9.59,0.07,-2.45,9.89
-1.90,-9.63,0.26,9.81,-9.56,0.08,-2.42,9.87
-1.91,-9.62,0.25,9.81,-9.57,0.06,-2.45,9.88
-1.91,-9.64,0.23,9.83,-9.56,0.07,-2.44,9.86
-1.91,-9.63,0.23,9.82,-9.57,0.07,-2.44,9.88
-1.89,-9.63,0.25,9.81,-9.54,0.05,-2.45,9.85
-1.87,-9.63,0.20,9.81,-9.52,0.06,-2.45,9.83
-1.90,-9.64,0.21,9.83,-9.56,0.07,-2.49,9.88
-1.98,-9.66,0.31,9.87,-9.56,0.07,-2.51,9.88
-1.93,-9.60,0.39,9.80,-9.56,0.08,-2.44,9.87
-1.87,-9.55,0.29,9.73,-9.51,0.08,-2.45,9.82
-1.86,-9.57,0.22,9.75,-9.60,0.08,-2.46,9.91
-1.86,-9.66,0.20,9.84,-9.54,0.06,-2.39,9.84
-1.79,-9.64,0.19,9.81,-9.60,0.05,-2.40,9.90
-1.87,-9.65,0.24,9.83,-9.56,0.04,-2.48,9.88
-1.91,-9.56,0.38,9.76,-9.50,0.09,-2.41,9.80
-1.96,-9.59,0.44,9.80,-9.54,0.10,-2.39,9.84
-1.95,-9.57,0.24,9.77,-9.54,0.10,-2.39,9.84
-1.91,-9.59,0.13,9.78,-9.58,0.11,-2.42,9.88
-1.90,-9.67,0.22,9.86,-9.61,0.10,-2.37,9.90
-1.86,-9.67,0.19,9.85,-9.62,0.08,-2.40,9.92
-1.82,-9.66,0.23,9.83,-9.60,0.04,-2.40,9.90
-1.83,-9.68,0.19,9.86,-9.60,0.06,-2.42,9.90
-1.88,-9.63,0.32,9.82,-9.56,0.05,-2.39,9.86
-1.90,-9.59,0.30,9.78,-9.53,0.11,-2.39,9.83
-1.90,-9.58,0.22,9.77,-9.54,0.07,-2.41,9.84
-1.90,-9.60,0.22,9.78,-9.54,0.06,-2.39,9.83
-1.89,-9.52,0.27,9.71,-9.51,0.06,-2.38,9.80
-1.85,-9.61,0.34,9.79,-9.55,0.05,-2.38,9.84
-1.85,-9.61,0.20,9.79,-9.55,0.06,-2.37,9.84
-1.85,-9.60,0.29,9.78,-9.55,0.06,-2.38,9.84
-1.85,-9.62,0.33,9.80,-9.57,0.07,-2.39,9.86
-1.90,-9.60,0.20,9.79,-9.54,0.07,-2.41,9.85
-1.91,-9.64,0.25,9.83,-9.60,0.09,-2.41,9.89
-1.92,-9.63,0.23,9.82,-9.57,0.09,-2.38,9.86
-1.94,-9.65,0.28,9.85,-9.56,0.09,-2.39,9.86
-1.83,-9.67,0.19,9.85,-9.62,0.07,-2.35,9.90
-1.89,-9.66,0.09,9.85,-9.63,0.10,-2.41,9.92
-1.89,-9.68,0.27,9.87,-9.57,0.10,-2.46,9.89
-1.88,-9.65,0.31,9.84,-9.62,0.08,-2.33,9.90
-1.87,-9.60,0.18,9.79,-9.60,0.08,-2.37,9.89
-1.90,-9.62,0.27,9.81,-9.56,0.08,-2.43,9.87
-1.90,-9.55,0.23,9.74,-9.51,0.07,-2.42,9.82
-1.89,-9.55,0.10,9.74,-9.53,0.09,-2.40,9.83
-1.90,-9.58,0.14,9.77,-9.53,0.10,-2.35,9.82
-1.87,-9.63,0.25,9.81,-9.54,0.10,-2.37,9.83
-1.84,-9.65,0.14,9.82,-9.55,0.08,-2.36,9.84
-1.87,-9.64,0.16,9.82,-9.55,0.09,-2.36,9.84
-1.86,-9.62,0.24,9.80,-9.56,0.09,-2.37,9.85
-1.88,-9.65,0.22,9.83,-9.59,0.07,-2.38,9.88
-1.88,-9.65,0.23,9.83,-9.59,0.08,-2.35,9.87
-1.88,-9.62,0.27,9.80,-9.54,0.08,-2.40,9.84
-1.88,-9.62,0.24,9.80,-9.59,0.07,-2.38,9.88
-1.89,-9.62,0.17,9.80,-9.58,0.10,-2.37,9.87
-1.90,-9.64,0.25,9.83,-9.56,0.09,-2.37,9.85
-1.89,-9.63,0.22,9.81,-9.61,0.07,-2.35,9.90
-1.89,-9.67,0.27,9.85,-9.56,0.08,-2.37,9.85
-1.90,-9.66,0.20,9.85,-9.61,0.08,-2.40,9.90
-1.90,-9.60,0.13,9.79,-9.62,0.09,-2.34,9.90
-1.92,-9.63,0.22,9.82,-9.59,0.12,-2.37,9.88
-1.89,-9.64,0.28,9.83,-9.58,0.11,-2.38,9.87
-1.90,-9.60,0.27,9.79,-9.56,0.10,-2.35,9.85
-1.89,-9.61,0.21,9.79,-9.57,0.13,-2.39,9.86
-1.91,-9.60,0.20,9.79,-9.58,0.12,-2.37,9.87
-1.88,-9.59,0.22,9.77,-9.58,0.12,-2.37,9.87
-1.89,-9.62,0.16,9.81,-9.56,0.11,-2.34,9.84
-1.91,-9.63,0.21,9.82,-9.57,0.10,-2.36,9.86
-1.91,-9.63,0.26,9.82,-9.56,0.08,-2.38,9.86
-1.83,-9.58,0.05,9.76,-9.56,0.09,-2.37,9.85
-1.89,-9.66,0.22,9.84,-9.57,0.09,-2.35,9.86
-1.87,-9.61,0.24,9.79,-9.59,0.10,-2.34,9.87
-1.86,-9.61,0.20,9.79,-9.55,0.11,-2.33,9.84
-1.90,-9.64,0.31,9.83,-9.57,0.09,-2.33,9.85
-1.88,-9.62,0.15,9.80,-9.60,0.12,-2.33,9.88
-1.89,-9.57,0.19,9.76,-9.57,0.11,-2.35,9.85
-1.92,-9.62,0.17,9.81,-9.62,0.10,-2.34,9.90
-1.92,-9.64,0.20,9.83,-9.60,0.12,-2.36,9.89
-1.88,-9.62,0.20,9.81,-9.58,0.11,-2.31,9.85
-1.82,-9.61,0.18,9.78,-9.60,0.13,-2.33,9.88
-1.92,-9.65,0.29,9.84,-9.63,0.12,-2.38,9.92
-1.94,-9.70,0.47,9.90,-9.63,0.11,-2.38,9.92
-1.89,-9.58,0.34,9.77,-9.53,0.09,-2.25,9.79
-1.86,-9.47,0.11,9.65,-9.57,0.12,-2.39,9.87
-1.83,-9.61,0.09,9.78,-9.57,0.09,-2.34,9.85
-1.90,-9.69,0.30,9.88,-9.54,0.09,-2.26,9.81
-1.89,-9.67,0.21,9.86,-9.62,0.12,-2.41,9.92
-1.94,-9.65,0.23,9.84,-9.55,0.08,-2.40,9.85
-1.96,-9.60,0.30,9.80,-9.57,0.10,-2.34,9.85
-1.91,-9.51,0.20,9.70,-9.58,0.12,-2.32,9.86
-1.90,-9.53,0.15,9.72,-9.56,0.12,-2.37,9.85
-1.95,-9.62,0.18,9.82,-9.57,0.11,-2.37,9.86
-1.93,-9.60,0.10,9.79,-9.58,0.13,-2.30,9.85
-1.89,-9.68,0.07,9.86,-9.62,0.14,-2.32,9.90
-1.86,-9.64,0.16,9.81,-9.64,0.09,-2.31,9.92
-1.87,-9.70,0.27,9.89,-9.63,0.07,-2.30,9.90
-1.88,-9.68,0.23,9.87,-9.60,0.11,-2.30,9.87
-1.89,-9.64,0.20,9.83,-9.58,0.11,-2.29,9.85
-1.92,-9.65,0.22,9.84,-9.61,0.13,-2.28,9.88
-1.88,-9.65,0.18,9.83,-9.56,0.10,-2.28,9.83
-1.90,-9.60,0.14,9.79,-9.57,0.09,-2.28,9.83
-1.90,-9.56,0.19,9.75,-9.58,0.09,-2.28,9.85
-1.85,-9.63,0.23,9.81,-9.58,0.05,-2.32,9.86
-1.85,-9.61,0.18,9.79,-9.58,0.07,-2.33,9.86
-1.84,-9.61,0.16,9.79,-9.59,0.07,-2.35,9.88
-1.90,-9.63,0.19,9.81,-9.56,0.09,-2.35,9.84
-1.90,-9.61,0.17,9.80,-9.58,0.08,-2.30,9.85
-1.89,-9.65,0.19,9.83,-9.60,0.08,-2.34,9.88
-1.91,-9.64,0.15,9.83,-9.62,0.12,-2.28,9.89
-1.91,-9.70,0.19,9.88,-9.62,0.08,-2.29,9.89
-1.88,-9.65,0.19,9.84,-9.60,0.11,-2.27,9.86
-1.87,-9.63,0.11,9.81,-9.62,0.10,-2.28,9.89
-1.89,-9.69,0.23,9.87,-9.61,0.11,-2.32,9.89
-1.87,-9.66,0.30,9.84,-9.58,0.11,-2.26,9.84
-1.83,-9.56,0.17,9.74,-9.53,0.06,-2.29,9.80
-1.86,-9.57,0.16,9.75,-9.54,0.08,-2.32,9.82
-1.92,-9.58,0.18,9.78,-9.55,0.11,-2.33,9.83
-1.91,-9.59,0.16,9.78,-9.58,0.12,-2.36,9.86
-1.85,-9.57,0.12,9.75,-9.59,0.09,-2.31,9.86
-1.86,-9.61,0.16,9.79,-9.57,0.07,-2.26,9.83
-1.85,-9.63,0.18,9.80,-9.63,0.08,-2.28,9.89
-1.86,-9.64,0.27,9.82,-9.62,0.12,-2.30,9.90
-1.85,-9.61,0.21,9.79,-9.62,0.11,-2.31,9.90
-1.89,-9.66,0.33,9.85,-9.60,0.15,-2.31,9.88
-1.90,-9.62,0.23,9.81,-9.62,0.11,-2.28,9.89
-1.90,-9.68,0.39,9.88,-9.59,0.14,-2.30,9.87
-1.89,-9.63,0.17,9.82,-9.61,0.11,-2.29,9.88
-1.90,-9.58,0.17,9.77,-9.59,0.12,-2.30,9.86
-1.88,-9.57,0.29,9.76,-9.59,0.10,-2.31,9.87
-1.90,-9.62,0.18,9.81,-9.60,0.11,-2.26,9.86
-1.90,-9.64,0.16,9.82,-9.60,0.10,-2.28,9.87
-1.89,-9.65,0.19,9.84,-9.57,0.07,-2.24,9.83
-1.87,-9.64,0.16,9.82,-9.60,0.08,-2.29,9.87
-1.87,-9.63,0.19,9.81,-9.58,0.07,-2.30,9.85
-1.88,-9.63,0.20,9.81,-9.61,0.09,-2.29,9.88
-1.89,-9.62,0.21,9.81,-9.58,0.09,-2.30,9.85
-1.86,-9.61,0.21,9.79,-9.58,0.16,-2.29,9.85
-1.92,-9.63,0.25,9.82,-9.60,0.12,-2.29,9.87
-1.87,-9.62,0.20,9.81,-9.55,0.11,-2.30,9.82
-1.88,-9.60,0.16,9.78,-9.57,0.11,-2.30,9.85
-1.89,-9.61,0.15,9.80,-9.58,0.08,-2.30,9.85
-1.87,-9.61,0.15,9.79,-9.59,0.10,-2.29,9.86
-1.84,-9.52,0.28,9.70,-9.58,0.12,-2.30,9.85
-1.88,-9.63,0.14,9.82,-9.55,0.11,-2.27,9.82
-1.86,-9.67,0.22,9.85,-9.66,0.08,-2.31,9.93
-1.90,-9.62,0.20,9.81,-9.59,0.10,-2.27,9.86
-1.84,-9.57,0.05,9.74,-9.61,0.09,-2.31,9.89
-1.89,-9.67,0.14,9.85,-9.60,0.12,-2.31,9.87
-1.89,-9.65,0.15,9.83,-9.58,0.12,-2.30,9.85
-1.88,-9.60,0.16,9.79,-9.57,0.11,-2.32,9.85
-1.89,-9.62,0.17,9.80,-9.56,0.13,-2.28,9.83
-1.88,-9.61,0.19,9.80,-9.57,0.10,-2.29,9.84
-1.88,-9.64,0.21,9.82,-9.60,0.10,-2.31,9.88
-1.90,-9.62,0.20,9.81,-9.58,0.09,-2.28,9.85
-1.87,-9.64,0.20,9.82,-9.59,0.10,-2.30,9.86
-1.88,-9.65,0.22,9.83,-9.58,0.09,-2.30,9.86
-1.88,-9.64,0.18,9.82,-9.58,0.11,-2.28,9.85
-1.84,-9.59,0.18,9.76,-9.59,0.14,-2.29,9.86
-1.98,-9.65,0.21,9.85,-9.61,0.13,-2.39,9.91
-1.96,-9.65,0.34,9.85,-9.60,0.13,-2.28,9.87
-1.91,-9.57,0.15,9.76,-9.57,0.12,-2.22,9.83
-1.90,-9.51,0.10,9.70,-9.60,0.11,-2.41,9.90
-1.86,-9.70,0.19,9.88,-9.52,0.11,-2.12,9.76
-1.83,-9.63,0.09,9.80,-9.63,0.10,-2.32,9.90
-1.92,-9.66,0.17,9.85,-9.60,0.11,-2.31,9.87
-1.94,-9.63,0.29,9.82,-9.53,0.13,-2.34,9.81
-1.89,-9.59,0.24,9.78,-9.57,0.11,-2.26,9.84
-1.91,-9.58,0.16,9.77,-9.56,0.10,-2.29,9.83
-1.94,-9.60,0.11,9.80,-9.54,0.12,-2.31,9.81
-1.94,-9.59,0.14,9.79,-9.58,0.14,-2.27,9.85
-1.92,-9.64,0.15,9.84,-9.62,0.13,-2.29,9.89
-1.88,-9.66,0.15,9.84,-9.65,0.12,-2.27,9.91
-1.86,-9.68,0.20,9.86,-9.64,0.11,-2.23,9.90
-1.89,-9.66,0.33,9.85,-9.63,0.11,-2.27,9.90
-1.90,-9.68,0.14,9.87,-9.61,0.09,-2.27,9.87
-1.92,-9.63,0.18,9.82,-9.59,0.12,-2.29,9.87
-1.91,-9.61,0.22,9.80,-9.60,0.15,-2.25,9.87
-1.92,-9.61,0.17,9.80,-9.60,0.11,-2.26,9.86
-1.91,-9.61,0.17,9.80,-9.58,0.09,-2.25,9.84
-1.87,-9.58,0.18,9.77,-9.57,0.08,-2.25,9.83
-1.88,-9.58,0.20,9.77,-9.59,0.08,-2.26,9.86
-1.87,-9.61,0.18,9.80,-9.60,0.11,-2.27,9.86
-1.89,-9.58,0.15,9.76,-9.58,0.08,-2.27,9.84
-1.88,-9.61,0.17,9.79,-9.56,0.11,-2.28,9.83
-1.93,-9.63,0.14,9.82,-9.59,0.12,-2.27,9.86
-1.92,-9.64,0.14,9.83,-9.63,0.10,-2.28,9.90
-1.92,-9.66,0.13,9.85,-9.62,0.12,-2.25,9.88
-1.89,-9.63,0.17,9.81,-9.65,0.11,-2.23,9.91
-1.90,-9.65,0.21,9.84,-9.60,0.12,-2.28,9.87
-1.92,-9.63,0.21,9.83,-9.65,0.12,-2.28,9.92
-1.92,-9.66,0.25,9.85,-9.62,0.10,-2.30,9.89
-1.84,-9.62,0.17,9.79,-9.66,0.10,-2.26,9.92
-1.89,-9.62,0.15,9.81,-9.56,0.08,-2.23,9.82
-1.91,-9.60,0.18,9.79,-9.57,0.08,-2.30,9.84
-1.90,-9.60,0.16,9.79,-9.59,0.12,-2.28,9.86
-1.88,-9.61,0.13,9.79,-9.60,0.14,-2.31,9.88
-1.86,-9.62,0.15,9.80,-9.58,0.12,-2.22,9.84
-1.86,-9.64,0.12,9.82,-9.62,0.10,-2.26,9.88
-1.88,-9.66,0.11,9.85,-9.59,0.12,-2.27,9.86
-1.88,-9.69,0.11,9.87,-9.61,0.12,-2.27,9.88
-1.92,-9.69,0.17,9.88,-9.63,0.14,-2.31,9.90
-1.92,-9.66,0.16,9.85,-9.60,0.10,-2.28,9.87
-1.90,-9.65,0.16,9.84,-9.60,0.11,-2.29,9.87
-1.90,-9.63,0.19,9.82,-9.61,0.08,-2.32,9.88
-1.91,-9.64,0.21,9.83,-9.61,0.11,-2.27,9.87
-1.86,-9.60,0.19,9.78,-9.59,0.10,-2.25,9.85
-1.90,-9.62,0.19,9.81,-9.59,0.07,-2.28,9.86
-1.90,-9.64,0.19,9.83,-9.62,0.10,-2.30,9.89
-1.90,-9.64,0.16,9.83,-9.60,0.07,-2.30,9.88
-1.88,-9.62,0.16,9.80,-9.61,0.08,-2.32,9.89
-1.89,-9.66,0.28,9.85,-9.58,0.13,-2.33,9.86
-1.91,-9.61,0.14,9.80,-9.58,0.11,-2.34,9.86
-1.90,-9.64,0.12,9.83,-9.62,0.11,-2.32,9.90
-1.91,-9.62,0.19,9.81,-9.57,0.12,-2.32,9.85
-1.91,-9.64,0.24,9.83,-9.57,0.11,-2.33,9.85
-1.88,-9.67,0.07,9.85,-9.57,0.12,-2.34,9.85
-1.90,-9.63,0.07,9.82,-9.56,0.14,-2.31,9.83
-1.90,-9.60,0.24,9.79,-9.56,0.14,-2.30,9.84
-1.89,-9.63,0.25,9.82,-9.57,0.12,-2.31,9.85
-1.87,-9.63,0.27,9.82,-9.59,0.10,-2.30,9.86
-1.89,-9.63,0.21,9.82,-9.57,0.08,-2.29,9.84
-1.87,-9.62,0.15,9.80,-9.59,0.10,-2.33,9.87
-1.90,-9.65,0.25,9.84,-9.59,0.11,-2.34,9.88
-1.90,-9.63,0.21,9.82,-9.56,0.10,-2.35,9.84
-1.88,-9.62,0.20,9.81,-9.57,0.11,-2.36,9.85
-1.93,-9.58,0.24,9.77,-9.58,0.14,-2.31,9.85
-1.95,-9.58,0.25,9.78,-9.55,0.12,-2.33,9.83
-1.93,-9.61,0.23,9.80,-9.59,0.11,-2.34,9.87
-1.91,-9.57,0.28,9.77,-9.57,0.13,-2.34,9.85
-1.90,-9.60,0.18,9.79,-9.56,0.13,-2.35,9.84
-1.89,-9.63,0.14,9.82,-9.59,0.13,-2.35,9.87
-1.91,-9.67,0.16,9.86,-9.61,0.08,-2.37,9.90
-1.89,-9.64,0.20,9.83,-9.60,0.10,-2.36,9.88
-1.92,-9.66,0.26,9.85,-9.59,0.11,-2.35,9.88
-1.92,-9.64,0.28,9.84,-9.58,0.12,-2.38,9.88
-1.90,-9.62,0.29,9.81,-9.55,0.09,-2.43,9.86
-1.92,-9.63,0.25,9.82,-9.59,0.11,-2.36,9.88
-1.94,-9.63,0.22,9.83,-9.61,0.13,-2.40,9.90
-1.90,-9.61,0.19,9.80,-9.59,0.12,-2.38,9.88
-1.89,-9.62,0.13,9.81,-9.59,0.12,-2.39,9.89
-1.87,-9.62,0.20,9.80,-9.60,0.11,-2.35,9.89
-1.90,-9.64,0.23,9.83,-9.59,0.13,-2.34,9.88
-2.00,-9.77,0.27,9.97,-9.62,0.13,-2.43,9.92
-1.93,-9.64,0.17,9.83,-9.55,0.11,-2.33,9.83
-1.86,-9.54,0.33,9.73,-9.52,0.09,-2.41,9.82
-1.87,-9.56,0.22,9.74,-9.58,0.11,-2.52,9.90
-1.90,-9.74,0.21,9.93,-9.49,0.09,-2.26,9.76
-1.81,-9.56,0.11,9.73,-9.55,0.11,-2.38,9.84
-1.85,-9.59,0.35,9.78,-9.53,0.12,-2.52,9.86
-1.93,-9.58,0.43,9.78,-9.55,0.09,-2.43,9.86
-1.95,-9.54,0.32,9.74,-9.56,0.09,-2.38,9.85
-1.95,-9.56,0.17,9.75,-9.55,0.13,-2.34,9.83
-1.95,-9.64,0.14,9.84,-9.60,0.15,-2.39,9.90
-1.90,-9.68,0.23,9.87,-9.61,0.11,-2.40,9.91
-1.89,-9.73,0.39,9.92,-9.63,0.11,-2.37,9.92
-1.89,-9.73,0.33,9.92,-9.66,0.11,-2.37,9.95
-1.87,-9.67,0.29,9.85,-9.59,0.08,-2.37,9.88
-1.89,-9.68,0.42,9.87,-9.61,0.08,-2.37,9.90
-1.90,-9.62,0.26,9.81,-9.56,0.11,-2.40,9.86
-1.90,-9.59,0.28,9.78,-9.54,0.10,-2.37,9.83
-1.90,-9.59,0.27,9.78,-9.56,0.09,-2.37,9.85
-1.85,-9.62,0.33,9.80,-9.55,0.10,-2.37,9.84
-1.86,-9.55,0.16,9.73,-9.57,0.08,-2.38,9.86
-1.87,-9.60,0.15,9.78,-9.51,0.09,-2.43,9.82
-1.86,-9.60,0.23,9.78,-9.52,0.09,-2.35,9.80
-1.86,-9.60,0.29,9.78,-9.56,0.08,-2.42,9.87
-1.87,-9.58,0.25,9.76,-9.55,0.09,-2.42,9.85
-1.93,-9.62,0.23,9.81,-9.55,0.10,-2.41,9.85
-1.92,-9.61,0.20,9.80,-9.60,0.11,-2.43,9.90
-1.93,-9.66,0.22,9.85,-9.60,0.09,-2.42,9.90
-1.92,-9.71,0.25,9.90,-9.59,0.09,-2.38,9.88
-1.82,-9.70,0.31,9.88,-9.57,0.10,-2.38,9.86
-1.91,-9.70,0.25,9.89,-9.61,0.11,-2.48,9.93
-1.91,-9.69,0.27,9.88,-9.55,0.07,-2.43,9.86
-1.89,-9.60,0.20,9.79,-9.57,0.10,-2.36,9.86
-1.90,-9.60,0.29,9.79,-9.51,0.06,-2.44,9.81
-1.90,-9.60,0.24,9.78,-9.57,0.09,-2.43,9.87
-1.89,-9.57,0.17,9.76,-9.54,0.10,-2.42,9.84
-1.87,-9.63,0.26,9.82,-9.58,0.05,-2.39,9.88
-1.86,-9.61,0.18,9.79,-9.58,0.11,-2.40,9.87
-1.84,-9.59,0.09,9.77,-9.55,0.07,-2.40,9.84
-1.86,-9.64,0.24,9.82,-9.56,0.08,-2.45,9.87
-1.90,-9.62,0.25,9.81,-9.54,0.10,-2.43,9.85
-1.91,-9.63,0.24,9.82,-9.55,0.09,-2.42,9.85
-1.90,-9.63,0.26,9.82,-9.54,0.10,-2.45,9.85
-1.89,-9.58,0.24,9.77,-9.54,0.11,-2.43,9.84
-1.91,-9.61,0.24,9.80,-9.51,0.09,-2.44,9.81
-1.90,-9.61,0.24,9.79,-9.55,0.08,-2.45,9.86
-1.85,-9.61,0.23,9.79,-9.52,0.07,-2.44,9.83
-1.87,-9.62,0.26,9.80,-9.54,0.06,-2.40,9.84
-1.87,-9.62,0.27,9.80,-9.58,0.07,-2.44,9.89
-1.89,-9.62,0.28,9.81,-9.57,0.06,-2.46,9.88
-1.92,-9.63,0.25,9.83,-9.56,0.09,-2.45,9.87
-1.94,-9.58,0.27,9.78,-9.54,0.08,-2.48,9.85
-1.91,-9.59,0.28,9.78,-9.55,0.08,-2.48,9.87
-1.91,-9.60,0.25,9.80,-9.57,0.08,-2.44,9.88
-1.90,-9.59,0.27,9.78,-9.56,0.07,-2.42,9.86
-1.88,-9.62,0.25,9.80,-9.55,0.08,-2.41,9.85
-1.87,-9.61,0.29,9.79,-9.52,0.10,-2.45,9.83
-1.89,-9.63,0.27,9.82,-9.54,0.07,-2.42,9.84
-1.88,-9.62,0.25,9.80,-9.53,0.07,-2.45,9.84
-1.89,-9.61,0.27,9.80,-9.54,0.06,-2.44,9.84
-1.91,-9.60,0.29,9.80,-9.56,0.05,-2.46,9.88
-1.88,-9.61,0.31,9.80,-9.53,0.06,-2.44,9.84
-1.89,-9.61,0.30,9.80,-9.56,0.05,-2.43,9.86
-1.92,-9.64,0.30,9.84,-9.59,0.07,-2.44,9.89
-1.91,-9.64,0.26,9.84,-9.56,0.09,-2.45,9.87
-1.90,-9.62,0.23,9.81,-9.55,0.07,-2.43,9.85
-1.89,-9.61,0.23,9.79,-9.56,0.08,-2.42,9.86
-1.90,-9.63,0.26,9.82,-9.55,0.09,-2.42,9.85
-1.89,-9.63,0.26,9.81,-9.58,0.08,-2.41,9.88
-1.91,-9.65,0.26,9.84,-9.54,0.10,-2.43,9.84
-1.92,-9.63,0.27,9.83,-9.54,0.09,-2.45,9.85
-1.89,-9.62,0.26,9.81,-9.56,0.09,-2.43,9.86
-1.89,-9.63,0.29,9.82,-9.57,0.07,-2.45,9.88
-1.93,-9.61,0.25,9.80,-9.57,0.10,-2.45,9.88
-1.88,-9.62,0.21,9.80,-9.58,0.08,-2.44,9.89
-1.89,-9.63,0.21,9.81,-9.54,0.06,-2.44,9.84
-1.93,-9.66,0.20,9.85,-9.57,0.09,-2.49,9.89
-1.96,-9.63,0.35,9.83,-9.56,0.06,-2.46,9.87
-1.91,-9.60,0.31,9.80,-9.51,0.05,-2.37,9.80
-1.80,-9.54,0.20,9.71,-9.55,0.05,-2.51,9.88
-1.85,-9.64,0.20,9.82,-9.56,0.05,-2.45,9.87
-1.81,-9.68,0.27,9.85,-9.57,0.07,-2.40,9.87
-1.81,-9.61,0.23,9.79,-9.55,0.06,-2.49,9.87
-1.95,-9.59,0.31,9.79,-9.51,0.08,-2.49,9.83
-1.98,-9.59,0.29,9.79,-9.54,0.11,-2.41,9.84
-1.98,-9.56,0.23,9.76,-9.56,0.13,-2.40,9.85
-1.99,-9.61,0.20,9.81,-9.56,0.13,-2.42,9.86
-1.94,-9.64,0.21,9.84,-9.58,0.12,-2.43,9.89
-1.88,-9.73,0.22,9.91,-9.62,0.10,-2.41,9.92
-1.85,-9.69,0.22,9.86,-9.63,0.05,-2.40,9.92
-1.85,-9.65,0.21,9.83,-9.63,0.07,-2.43,9.94
-1.88,-9.66,0.30,9.84,-9.56,0.06,-2.43,9.87
-1.92,-9.63,0.27,9.82,-9.57,0.10,-2.42,9.87
-1.91,-9.61,0.24,9.80,-9.54,0.07,-2.40,9.84
-1.92,-9.60,0.22,9.79,-9.53,0.10,-2.41,9.83
-1.91,-9.61,0.19,9.80,-9.54,0.07,-2.42,9.84
-1.86,-9.59,0.18,9.77,-9.55,0.09,-2.37,9.84
-1.87,-9.64,0.07,9.82,-9.57,0.08,-2.41,9.86
-1.87,-9.61,0.24,9.79,-9.55,0.06,-2.39,9.84
-1.87,-9.63,0.27,9.82,-9.56,0.08,-2.40,9.86
-1.87,-9.58,0.23,9.77,-9.54,0.08,-2.44,9.85
-1.92,-9.66,0.29,9.85,-9.55,0.08,-2.41,9.85
-1.91,-9.67,0.28,9.86,-9.60,0.06,-2.43,9.90
-1.91,-9.64,0.20,9.83,-9.58,0.09,-2.39,9.87
-1.88,-9.67,0.14,9.85,-9.64,0.10,-2.38,9.93
-1.88,-9.67,0.17,9.86,-9.55,0.10,-2.38,9.84
-1.93,-9.67,0.19,9.86,-9.61,0.11,-2.48,9.93
-1.93,-9.68,0.33,9.88,-9.58,0.07,-2.44,9.89
-1.89,-9.59,0.25,9.78,-9.60,0.09,-2.40,9.89
-1.94,-9.62,0.25,9.82,-9.54,0.06,-2.41,9.84
-1.93,-9.58,0.29,9.78,-9.53,0.10,-2.44,9.84
-1.93,-9.57,0.22,9.77,-9.54,0.09,-2.43,9.85
-1.90,-9.60,0.14,9.79,-9.54,0.11,-2.38,9.83
-1.87,-9.61,0.18,9.80,-9.55,0.09,-2.40,9.85
-1.86,-9.62,0.20,9.80,-9.57,0.06,-2.40,9.87
-1.87,-9.60,0.08,9.78,-9.54,0.06,-2.41,9.84
-1.88,-9.63,0.15,9.81,-9.55,0.08,-2.44,9.85
-1.90,-9.66,0.25,9.85,-9.59,0.08,-2.38,9.88
-1.94,-9.60,0.26,9.79,-9.53,0.08,-2.41,9.83
-1.92,-9.61,0.32,9.81,-9.57,0.12,-2.39,9.87
-1.90,-9.63,0.15,9.81,-9.57,0.10,-2.38,9.86
-1.91,-9.62,0.17,9.81,-9.57,0.11,-2.39,9.86
-1.87,-9.60,0.19,9.78,-9.59,0.08,-2.38,9.88
-1.90,-9.62,0.20,9.81,-9.56,0.09,-2.37,9.85
-1.90,-9.66,0.22,9.84,-9.56,0.09,-2.37,9.85
-1.89,-9.61,0.23,9.80,-9.57,0.05,-2.38,9.87
-1.91,-9.63,0.23,9.82,-9.57,0.07,-2.39,9.86
-1.92,-9.63,0.24,9.82,-9.58,0.08,-2.40,9.87
-1.89,-9.67,0.26,9.86,-9.59,0.09,-2.40,9.88
-1.91,-9.61,0.25,9.80,-9.61,0.08,-2.38,9.90
-1.91,-9.60,0.19,9.79,-9.58,0.08,-2.40,9.87
-1.88,-9.59,0.15,9.78,-9.56,0.07,-2.39,9.85
-1.90,-9.61,0.28,9.80,-9.52,0.08,-2.42,9.82
-1.88,-9.59,0.28,9.78,-9.57,0.08,-2.37,9.86
-1.89,-9.64,0.13,9.82,-9.54,0.07,-2.37,9.83
-1.91,-9.68,0.29,9.87,-9.55,0.07,-2.37,9.84
-1.88,-9.64,0.23,9.83,-9.56,0.08,-2.38,9.85
-1.87,-9.60,0.22,9.79,-9.59,0.09,-2.38,9.88
-1.92,-9.63,0.33,9.82,-9.59,0.11,-2.37,9.88
-1.92,-9.64,0.21,9.83,-9.60,0.07,-2.39,9.89
-1.91,-9.63,0.19,9.82,-9.59,0.08,-2.39,9.88
-1.90,-9.61,0.18,9.80,-9.58,0.09,-2.41,9.88
-1.92,-9.62,0.19,9.81,-9.56,0.10,-2.38,9.85
-1.91,-9.61,0.22,9.80,-9.54,0.08,-2.39,9.84
-1.92,-9.63,0.20,9.82,-9.55,0.09,-2.40,9.85
-1.88,-9.62,0.21,9.80,-9.55,0.08,-2.36,9.84
-1.90,-9.61,0.23,9.80,-9.55,0.10,-2.38,9.84
-1.90,-9.62,0.20,9.81,-9.57,0.08,-2.40,9.87
-1.88,-9.62,0.22,9.80,-9.55,0.06,-2.35,9.83
-1.91,-9.60,0.22,9.79,-9.57,0.08,-2.36,9.86
-1.93,-9.62,0.19,9.82,-9.57,0.07,-2.41,9.87
-1.92,-9.61,0.23,9.81,-9.57,0.07,-2.41,9.87
-1.90,-9.59,0.20,9.78,-9.54,0.11,-2.34,9.83
-1.90,-9.60,0.19,9.79,-9.53,0.08,-2.38,9.82
-1.87,-9.49,0.26,9.67,-9.58,0.11,-2.40,9.88
-1.97,-9.61,0.37,9.82,-9.60,0.12,-2.46,9.91
-1.93,-9.63,0.55,9.83,-9.57,0.08,-2.28,9.83
-1.84,-9.55,0.13,9.73,-9.59,0.08,-2.43,9.89
-1.87,-9.66,0.14,9.84,-9.64,0.06,-2.40,9.93
-1.88,-9.71,0.24,9.89,-9.56,0.03,-2.28,9.83
-1.86,-9.66,0.29,9.84,-9.64,0.08,-2.37,9.93
-1.93,-9.67,0.28,9.86,-9.53,0.09,-2.41,9.83
-1.92,-9.59,0.28,9.79,-9.52,0.11,-2.37,9.81
-1.92,-9.55,0.24,9.74,-9.49,0.13,-2.34,9.78
-1.91,-9.56,0.18,9.75,-9.54,0.13,-2.37,9.83
-1.98,-9.68,0.31,9.88,-9.57,0.10,-2.37,9.86
-1.95,-9.61,0.13,9.81,-9.61,0.10,-2.30,9.88
-1.89,-9.66,0.17,9.84,-9.66,0.11,-2.36,9.94
-1.87,-9.67,0.30,9.86,-9.65,0.09,-2.39,9.94
-1.92,-9.71,0.21,9.90,-9.62,0.08,-2.38,9.91
-1.94,-9.62,0.27,9.82,-9.59,0.07,-2.36,9.87
-1.90,-9.64,0.22,9.82,-9.58,0.09,-2.35,9.86
-1.91,-9.63,0.24,9.82,-9.55,0.10,-2.33,9.83
-1.88,-9.59,0.22,9.78,-9.55,0.10,-2.35,9.83
-1.89,-9.59,0.19,9.78,-9.57,0.09,-2.33,9.85
-1.90,-9.62,0.21,9.81,-9.55,0.10,-2.31,9.83
-1.87,-9.61,0.21,9.79,-9.58,0.11,-2.29,9.85
-1.85,-9.55,0.14,9.73,-9.57,0.11,-2.33,9.85
-1.88,-9.61,0.14,9.79,-9.57,0.10,-2.35,9.86
-1.94,-9.65,0.16,9.84,-9.56,0.08,-2.36,9.85
-1.94,-9.64,0.23,9.83,-9.56,0.09,-2.35,9.84
-1.95,-9.60,0.10,9.80,-9.57,0.11,-2.37,9.85
-1.94,-9.66,0.10,9.85,-9.57,0.15,-2.35,9.86
-1.90,-9.63,0.18,9.82,-9.60,0.09,-2.29,9.87
-1.86,-9.64,0.19,9.82,-9.60,0.12,-2.32,9.88
-1.96,-9.60,0.16,9.80,-9.57,0.13,-2.34,9.85
-1.95,-9.67,0.27,9.87,-9.62,0.13,-2.41,9.92
-1.93,-9.64,0.32,9.84,-9.62,0.11,-2.28,9.89
-1.90,-9.60,0.27,9.80,-9.56,0.08,-2.35,9.85
-1.91,-9.56,0.19,9.75,-9.56,0.09,-2.35,9.84
-1.94,-9.56,0.38,9.77,-9.56,0.10,-2.35,9.84
-1.93,-9.61,0.47,9.81,-9.60,0.12,-2.37,9.89
-1.88,-9.60,0.18,9.78,-9.59,0.11,-2.27,9.86
-1.90,-9.59,0.20,9.78,-9.59,0.12,-2.28,9.85
-1.88,-9.63,0.20,9.81,-9.57,0.12,-2.31,9.84
-1.90,-9.62,0.19,9.81,-9.63,0.11,-2.32,9.91
-1.91,-9.66,0.16,9.85,-9.61,0.11,-2.32,9.88
-1.91,-9.64,0.17,9.83,-9.58,0.12,-2.33,9.86
-1.93,-9.61,0.24,9.81,-9.61,0.12,-2.34,9.89
-1.91,-9.62,0.24,9.81,-9.60,0.10,-2.34,9.88
-1.92,-9.61,0.23,9.81,-9.57,0.10,-2.30,9.84
-1.89,-9.59,0.21,9.78,-9.58,0.09,-2.29,9.85
-1.92,-9.59,0.18,9.79,-9.57,0.08,-2.29,9.84
-1.91,-9.62,0.34,9.81,-9.59,0.09,-2.30,9.86
-1.87,-9.61,0.29,9.79,-9.57,0.09,-2.33,9.85
-1.91,-9.57,0.14,9.76,-9.58,0.10,-2.32,9.86
-1.93,-9.60,0.27,9.79,-9.55,0.11,-2.31,9.83
-1.93,-9.66,0.25,9.85,-9.59,0.13,-2.31,9.86
-1.92,-9.63,0.26,9.83,-9.61,0.14,-2.31,9.88
-1.92,-9.66,0.11,9.85,-9.56,0.09,-2.34,9.84
-1.91,-9.64,0.02,9.82,-9.59,0.11,-2.31,9.87
-1.88,-9.62,0.17,9.80,-9.56,0.10,-2.32,9.84
-1.89,-9.61,0.24,9.80,-9.57,0.11,-2.32,9.85
-1.89,-9.60,0.25,9.79,-9.57,0.10,-2.34,9.85
-1.90,-9.51,0.22,9.70,-9.59,0.11,-2.31,9.87
-1.92,-9.62,0.27,9.81,-9.57,0.09,-2.29,9.84
-1.90,-9.66,0.17,9.84,-9.62,0.10,-2.27,9.88
-1.90,-9.62,0.24,9.81,-9.60,0.13,-2.32,9.88
-1.92,-9.64,0.23,9.83,-9.62,0.12,-2.29,9.89
-1.90,-9.61,0.19,9.80,-9.60,0.12,-2.28,9.87
-1.94,-9.62,0.20,9.82,-9.58,0.11,-2.32,9.85
-1.90,-9.62,0.15,9.81,-9.61,0.09,-2.31,9.88
-1.89,-9.59,0.14,9.78,-9.57,0.11,-2.32,9.85
-1.92,-9.64,0.26,9.83,-9.58,0.13,-2.34,9.87
-1.91,-9.63,0.15,9.82,-9.60,0.11,-2.30,9.87
-1.91,-9.60,0.20,9.79,-9.58,0.12,-2.33,9.86
-1.91,-9.67,0.26,9.86,-9.61,0.09,-2.34,9.89
-1.89,-9.62,0.18,9.81,-9.58,0.12,-2.29,9.85
-1.92,-9.63,0.20,9.82,-9.59,0.10,-2.31,9.86
-1.90,-9.62,0.21,9.81,-9.60,0.11,-2.31,9.87
-1.92,-9.63,0.24,9.83,-9.58,0.12,-2.33,9.86
-1.95,-9.63,0.21,9.83,-9.58,0.10,-2.33,9.86
-1.93,-9.63,0.19,9.83,-9.61,0.10,-2.29,9.88
-1.93,-9.65,0.22,9.84,-9.58,0.11,-2.31,9.85
-1.91,-9.62,0.25,9.81,-9.61,0.12,-2.30,9.88
-1.85,-9.62,0.20,9.79,-9.58,0.11,-2.30,9.85
-1.88,-9.60,0.20,9.79,-9.61,0.12,-2.32,9.88
-1.99,-9.67,0.30,9.88,-9.63,0.11,-2.34,9.91
-1.94,-9.65,0.42,9.86,-9.61,0.10,-2.30,9.88
-1.91,-9.56,0.26,9.75,-9.55,0.10,-2.22,9.81
-1.85,-9.51,0.12,9.69,-9.60,0.10,-2.38,9.89
-1.85,-9.66,0.19,9.84,-9.53,0.10,-2.20,9.78
-1.86,-9.62,0.16,9.80,-9.60,0.11,-2.26,9.86
-1.91,-9.65,0.20,9.84,-9.63,0.10,-2.39,9.92
-1.94,-9.62,0.24,9.81,-9.58,0.13,-2.29,9.85
-1.92,-9.65,0.17,9.84,-9.58,0.12,-2.35,9.87
-1.92,-9.56,0.16,9.76,-9.58,0.10,-2.31,9.85
-1.92,-9.62,0.15,9.81,-9.54,0.12,-2.31,9.82
-1.98,-9.60,0.14,9.80,-9.58,0.15,-2.30,9.86
-1.94,-9.66,0.10,9.86,-9.62,0.14,-2.29,9.89
-1.91,-9.64,0.33,9.83,-9.65,0.11,-2.26,9.91
-1.89,-9.68,0.23,9.87,-9.66,0.10,-2.29,9.93
-1.91,-9.66,0.20,9.85,-9.63,0.10,-2.28,9.89
-1.91,-9.67,0.21,9.86,-9.62,0.12,-2.25,9.88
-1.92,-9.61,0.20,9.80,-9.59,0.12,-2.27,9.86
-1.94,-9.61,0.21,9.81,-9.61,0.13,-2.25,9.87
-1.91,-9.61,0.18,9.80,-9.58,0.11,-2.26,9.84
-1.89,-9.63,0.17,9.82,-9.59,0.10,-2.27,9.85
-1.88,-9.60,0.18,9.78,-9.57,0.12,-2.26,9.84
-1.88,-9.62,0.20,9.80,-9.57,0.11,-2.26,9.83
-1.85,-9.60,0.21,9.78,-9.54,0.09,-2.31,9.82
-1.91,-9.59,0.21,9.78,-9.57,0.11,-2.29,9.84
-1.90,-9.62,0.20,9.80,-9.56,0.11,-2.29,9.83
-1.92,-9.61,0.19,9.80,-9.59,0.13,-2.28,9.85
-1.94,-9.62,0.21,9.82,-9.62,0.12,-2.30,9.89
-1.94,-9.62,0.18,9.81,-9.58,0.14,-2.28,9.85
-1.89,-9.63,0.18,9.81,-9.60,0.12,-2.29,9.87
-1.89,-9.60,0.19,9.78,-9.60,0.13,-2.27,9.86
-1.90,-9.58,0.10,9.77,-9.59,0.14,-2.26,9.86
-1.94,-9.70,0.34,9.89,-9.65,0.12,-2.35,9.93
-1.90,-9.62,0.21,9.80,-9.60,0.10,-2.22,9.85
-1.91,-9.61,0.17,9.80,-9.57,0.11,-2.29,9.84
-1.96,-9.64,0.23,9.84,-9.59,0.12,-2.29,9.86
-1.92,-9.62,0.23,9.81,-9.61,0.13,-2.30,9.88
-1.92,-9.60,0.17,9.79,-9.59,0.13,-2.30,9.87
-1.87,-9.60,0.18,9.78,-9.61,0.10,-2.29,9.88
-1.87,-9.62,0.17,9.80,-9.58,0.10,-2.29,9.85
-1.87,-9.65,0.18,9.83,-9.63,0.11,-2.28,9.90
-1.86,-9.64,0.19,9.82,-9.62,0.12,-2.28,9.89
-1.89,-9.66,0.20,9.84,-9.60,0.11,-2.27,9.86
-1.88,-9.66,0.19,9.84,-9.60,0.11,-2.28,9.87
-1.92,-9.63,0.16,9.82,-9.59,0.10,-2.26,9.85
-1.93,-9.62,0.17,9.82,-9.59,0.09,-2.30,9.87
-1.91,-9.60,0.21,9.80,-9.57,0.10,-2.30,9.84
-1.90,-9.61,0.20,9.80,-9.59,0.10,-2.26,9.85
-1.89,-9.62,0.18,9.80,-9.61,0.11,-2.29,9.88
-1.90,-9.60,0.19,9.79,-9.59,0.11,-2.31,9.86
-1.89,-9.62,0.21,9.80,-9.61,0.11,-2.28,9.88
-1.89,-9.61,0.20,9.80,-9.60,0.11,-2.29,9.87
-1.90,-9.60,0.22,9.79,-9.62,0.11,-2.29,9.89
-1.90,-9.62,0.21,9.81,-9.62,0.13,-2.29,9.89
-1.90,-9.64,0.19,9.82,-9.60,0.11,-2.29,9.87
-1.90,-9.62,0.19,9.81,-9.60,0.11,-2.28,9.87
-1.91,-9.62,0.19,9.81,-9.60,0.13,-2.28,9.87
-1.89,-9.62,0.22,9.81,-9.60,0.12,-2.26,9.87
-1.88,-9.64,0.20,9.83,-9.59,0.10,-2.25,9.85
-1.87,-9.63,0.22,9.81,-9.60,0.09,-2.27,9.86
-1.86,-9.62,0.20,9.80,-9.63,0.10,-2.27,9.89
-1.91,-9.62,0.21,9.81,-9.58,0.09,-2.27,9.85
-1.88,-9.63,0.21,9.82,-9.59,0.14,-2.27,9.86
-1.89,-9.61,0.19,9.80,-9.60,0.10,-2.26,9.86
-1.89,-9.62,0.18,9.81,-9.60,0.12,-2.29,9.87
-1.90,-9.62,0.20,9.81,-9.57,0.10,-2.29,9.84
-1.85,-9.61,0.18,9.79,-9.59,0.14,-2.30,9.86
-1.90,-9.62,0.20,9.81,-9.60,0.11,-2.29,9.87
-1.88,-9.62,0.20,9.81,-9.58,0.13,-2.31,9.86
-1.87,-9.63,0.20,9.81,-9.58,0.10,-2.32,9.85
-1.92,-9.63,0.18,9.82,-9.61,0.11,-2.31,9.88
-1.91,-9.63,0.17,9.81,-9.64,0.11,-2.30,9.91
-1.91,-9.61,0.18,9.80,-9.60,0.10,-2.29,9.87
-1.91,-9.63,0.20,9.82,-9.61,0.12,-2.29,9.88
-1.90,-9.64,0.17,9.82,-9.59,0.11,-2.29,9.86
-1.93,-9.66,0.16,9.86,-9.58,0.11,-2.29,9.85
-1.88,-9.64,0.17,9.82,-9.57,0.11,-2.29,9.84
-1.90,-9.62,0.21,9.81,-9.60,0.14,-2.28,9.87
-1.87,-9.63,0.21,9.82,-9.58,0.11,-2.26,9.84
-1.91,-9.61,0.20,9.80,-9.60,0.11,-2.29,9.87
-1.92,-9.63,0.21,9.82,-9.59,0.11,-2.29,9.86
-1.90,-9.63,0.17,9.81,-9.60,0.12,-2.28,9.87
-1.92,-9.62,0.18,9.81,-9.58,0.12,-2.30,9.85
-1.88,-9.62,0.18,9.80,-9.59,0.13,-2.27,9.85
-1.84,-9.60,0.16,9.78,-9.57,0.11,-2.29,9.85
-1.89,-9.64,0.14,9.82,-9.62,0.13,-2.27,9.88
-1.97,-9.67,0.32,9.88,-9.62,0.13,-2.36,9.90
-1.92,-9.60,0.31,9.79,-9.54,0.13,-2.18,9.79
-1.89,-9.51,0.14,9.70,-9.59,0.14,-2.39,9.88
-1.82,-9.60,0.06,9.78,-9.58,0.10,-2.34,9.87
-1.87,-9.69,0.16,9.87,-9.54,0.08,-2.13,9.78
-1.88,-9.63,0.16,9.81,-9.63,0.11,-2.36,9.91
-1.97,-9.64,0.24,9.85,-9.57,0.09,-2.30,9.84
-1.95,-9.61,0.25,9.81,-9.58,0.13,-2.31,9.86
-1.92,-9.55,0.21,9.75,-9.55,0.10,-2.31,9.83
-1.94,-9.57,0.13,9.77,-9.53,0.11,-2.25,9.80
-1.93,-9.61,0.13,9.80,-9.57,0.15,-2.29,9.84
-1.93,-9.63,0.13,9.82,-9.62,0.13,-2.27,9.88
-1.86,-9.65,0.15,9.83,-9.65,0.13,-2.26,9.91
-1.87,-9.67,0.16,9.85,-9.66,0.11,-2.26,9.92
-1.89,-9.71,0.23,9.89,-9.68,0.09,-2.28,9.94
-1.91,-9.69,0.22,9.88,-9.60,0.13,-2.27,9.87
-1.93,-9.66,0.20,9.85,-9.64,0.13,-2.26,9.90
-1.92,-9.64,0.18,9.83,-9.60,0.14,-2.28,9.86
-1.91,-9.60,0.12,9.79,-9.60,0.14,-2.28,9.87
-1.90,-9.60,0.14,9.79,-9.58,0.08,-2.26,9.85
-1.87,-9.61,0.17,9.79,-9.56,0.11,-2.25,9.82
-1.87,-9.61,0.20,9.79,-9.56,0.09,-2.26,9.82
-1.84,-9.60,0.22,9.78,-9.57,0.10,-2.27,9.84
-1.85,-9.60,0.24,9.78,-9.54,0.11,-2.31,9.82
-1.88,-9.60,0.22,9.78,-9.55,0.09,-2.30,9.82
-1.93,-9.63,0.21,9.82,-9.56,0.12,-2.28,9.83
-1.94,-9.60,0.21,9.80,-9.61,0.13,-2.30,9.89
-1.91,-9.61,0.20,9.80,-9.59,0.13,-2.29,9.86
-1.93,-9.62,0.17,9.81,-9.61,0.14,-2.28,9.88
-1.86,-9.67,0.17,9.85,-9.67,0.12,-2.30,9.94
-1.90,-9.61,0.09,9.80,-9.61,0.14,-2.25,9.87
-1.97,-9.68,0.23,9.88,-9.64,0.13,-2.35,9.93
-1.90,-9.71,0.30,9.90,-9.60,0.11,-2.25,9.87
-1.84,-9.61,0.24,9.78,-9.59,0.07,-2.32,9.87
-1.92,-9.65,0.33,9.85,-9.57,0.10,-2.32,9.85
-1.90,-9.59,0.19,9.78,-9.55,0.14,-2.30,9.82
-1.91,-9.58,0.25,9.78,-9.59,0.15,-2.33,9.87
-1.88,-9.59,0.29,9.77,-9.56,0.12,-2.30,9.84
-1.88,-9.61,0.20,9.80,-9.57,0.11,-2.27,9.84
-1.84,-9.63,0.18,9.80,-9.59,0.13,-2.28,9.86
-1.89,-9.67,0.16,9.86,-9.60,0.12,-2.32,9.88
-1.93,-9.77,0.14,9.95,-9.60,0.11,-2.31,9.88
-1.89,-9.58,0.22,9.77,-9.60,0.10,-2.33,9.87
-1.90,-9.63,0.33,9.82,-9.58,0.08,-2.33,9.86
-1.87,-9.61,0.23,9.79,-9.57,0.08,-2.34,9.85
-1.90,-9.64,0.36,9.83,-9.57,0.09,-2.28,9.84
-1.88,-9.61,0.22,9.80,-9.58,0.11,-2.32,9.86
-1.89,-9.60,0.23,9.79,-9.58,0.09,-2.28,9.85
-1.86,-9.61,0.23,9.79,-9.59,0.08,-2.31,9.86
-1.89,-9.63,0.26,9.81,-9.61,0.10,-2.32,9.89
-1.92,-9.64,0.20,9.84,-9.61,0.09,-2.30,9.88
-1.92,-9.63,0.35,9.82,-9.59,0.11,-2.32,9.87
-1.90,-9.63,0.24,9.82,-9.60,0.14,-2.33,9.88
-1.91,-9.63,0.22,9.82,-9.60,0.10,-2.35,9.89
-1.90,-9.60,0.20,9.79,-9.61,0.12,-2.42,9.91
-1.90,-9.62,0.29,9.81,-9.57,0.12,-2.35,9.85
-1.87,-9.66,0.27,9.84,-9.58,0.12,-2.32,9.86
-1.89,-9.63,0.19,9.82,-9.57,0.12,-2.30,9.84
-1.91,-9.64,0.16,9.83,-9.58,0.10,-2.30,9.85
-1.90,-9.64,0.13,9.83,-9.57,0.14,-2.31,9.85
-1.91,-9.62,0.25,9.81,-9.59,0.12,-2.32,9.87
-1.90,-9.61,0.21,9.80,-9.60,0.09,-2.35,9.88
-1.92,-9.63,0.29,9.83,-9.58,0.10,-2.30,9.85
-1.88,-9.59,0.28,9.78,-9.58,0.10,-2.34,9.86
-1.85,-9.61,0.21,9.79,-9.57,0.10,-2.36,9.85
-1.88,-9.65,0.28,9.83,-9.55,0.12,-2.35,9.84
-1.88,-9.59,0.28,9.77,-9.56,0.10,-2.33,9.84
-1.90,-9.61,0.25,9.80,-9.57,0.11,-2.37,9.86
-1.90,-9.61,0.25,9.80,-9.57,0.11,-2.35,9.86
-1.90,-9.60,0.26,9.79,-9.58,0.10,-2.35,9.86
-1.86,-9.65,0.29,9.83,-9.57,0.11,-2.35,9.85
-1.87,-9.62,0.20,9.80,-9.56,0.12,-2.37,9.85
-1.88,-9.61,0.25,9.80,-9.57,0.09,-2.35,9.86
-1.91,-9.62,0.27,9.81,-9.56,0.09,-2.39,9.86
-1.93,-9.61,0.26,9.80,-9.58,0.11,-2.39,9.87
-1.90,-9.61,0.25,9.80,-9.58,0.11,-2.36,9.87
-1.89,-9.61,0.25,9.80,-9.54,0.10,-2.36,9.83
-1.92,-9.63,0.25,9.82,-9.58,0.07,-2.39,9.87
-1.90,-9.57,0.35,9.76,-9.57,0.09,-2.39,9.87
-1.91,-9.63,0.28,9.82,-9.62,0.11,-2.41,9.92
-1.94,-9.64,0.20,9.84,-9.61,0.12,-2.41,9.91
-1.92,-9.59,0.18,9.78,-9.58,0.14,-2.36,9.86
-1.85,-9.63,0.22,9.81,-9.57,0.13,-2.39,9.86
-1.92,-9.65,0.26,9.84,-9.57,0.13,-2.43,9.88
-1.98,-9.67,0.27,9.87,-9.61,0.14,-2.47,9.92
-1.92,-9.70,0.40,9.89,-9.51,0.08,-2.32,9.79
-1.87,-9.52,0.20,9.71,-9.55,0.08,-2.38,9.84
-1.87,-9.58,0.23,9.77,-9.57,0.09,-2.50,9.89
-1.85,-9.65,0.31,9.83,-9.54,0.08,-2.33,9.82
-1.82,-9.59,0.25,9.76,-9.58,0.08,-2.46,9.89
-1.89,-9.60,0.31,9.79,-9.54,0.07,-2.49,9.86
-1.91,-9.58,0.33,9.78,-9.55,0.12,-2.43,9.85
-1.94,-9.56,0.26,9.76,-9.54,0.13,-2.37,9.83
-1.93,-9.57,0.17,9.76,-9.53,0.13,-2.43,9.84
-1.93,-9.66,0.19,9.86,-9.59,0.13,-2.41,9.89
-1.91,-9.69,0.23,9.88,-9.62,0.10,-2.39,9.91
-1.86,-9.68,0.45,9.86,-9.61,0.09,-2.41,9.91
-1.89,-9.73,0.36,9.92,-9.65,0.10,-2.39,9.95
-1.89,-9.62,0.28,9.81,-9.56,0.12,-2.41,9.86
-1.90,-9.60,0.36,9.79,-9.55,0.13,-2.42,9.85
-1.91,-9.58,0.29,9.77,-9.54,0.14,-2.40,9.84
-1.91,-9.56,0.24,9.76,-9.53,0.08,-2.42,9.84
-1.90,-9.58,0.26,9.77,-9.52,0.08,-2.43,9.82
-1.87,-9.58,0.27,9.76,-9.52,0.07,-2.37,9.81
-1.84,-9.61,0.28,9.79,-9.52,0.06,-2.38,9.82
-1.86,-9.59,0.29,9.77,-9.55,0.07,-2.36,9.83
-1.89,-9.63,0.28,9.82,-9.55,0.07,-2.39,9.84
-1.91,-9.60,0.29,9.80,-9.58,0.08,-2.41,9.87
-1.93,-9.60,0.29,9.80,-9.58,0.11,-2.43,9.89
-1.94,-9.61,0.28,9.81,-9.61,0.10,-2.42,9.91
-1.94,-9.65,0.26,9.84,-9.59,0.13,-2.43,9.90
-1.93,-9.65,0.27,9.84,-9.57,0.11,-2.39,9.86
-1.83,-9.65,0.23,9.82,-9.61,0.12,-2.40,9.91
-1.91,-9.63,0.21,9.82,-9.54,0.12,-2.38,9.83
-1.92,-9.64,0.34,9.84,-9.61,0.10,-2.53,9.94
-1.88,-9.59,0.36,9.78,-9.55,0.08,-2.32,9.83
-1.92,-9.57,0.28,9.77,-9.56,0.09,-2.46,9.87
-1.93,-9.69,0.41,9.89,-9.53,0.09,-2.44,9.84
-1.91,-9.52,0.21,9.71,-9.54,0.08,-2.43,9.85
-1.92,-9.55,0.31,9.74,-9.55,0.08,-2.44,9.86
-1.89,-9.61,0.22,9.79,-9.56,0.12,-2.40,9.86
-1.90,-9.63,0.27,9.82,-9.51,0.10,-2.40,9.81
-1.85,-9.60,0.25,9.78,-9.54,0.09,-2.43,9.85
-1.89,-9.62,0.27,9.80,-9.54,0.11,-2.44,9.85
-1.90,-9.61,0.28,9.80,-9.55,0.08,-2.49,9.87
-1.92,-9.61,0.28,9.81,-9.53,0.06,-2.48,9.84
-1.91,-9.63,0.30,9.82,-9.56,0.09,-2.45,9.87
-1.91,-9.60,0.27,9.79,-9.54,0.07,-2.44,9.85
-1.89,-9.61,0.27,9.80,-9.56,0.09,-2.43,9.86
-1.92,-9.63,0.28,9.83,-9.56,0.08,-2.43,9.86
-1.90,-9.62,0.27,9.81,-9.55,0.09,-2.40,9.85
-1.90,-9.64,0.25,9.83,-9.54,0.10,-2.40,9.84
-1.89,-9.61,0.27,9.80,-9.58,0.08,-2.41,9.88
-1.93,-9.65,0.26,9.85,-9.57,0.10,-2.42,9.87
-1.93,-9.64,0.27,9.83,-9.55,0.10,-2.44,9.86
-1.93,-9.61,0.27,9.80,-9.58,0.10,-2.47,9.90
-1.89,-9.60,0.25,9.79,-9.54,0.09,-2.43,9.84
-1.88,-9.64,0.28,9.82,-9.57,0.04,-2.46,9.88
-1.88,-9.61,0.30,9.80,-9.54,0.11,-2.47,9.85
-1.89,-9.61,0.27,9.80,-9.55,0.09,-2.48,9.87
-1.92,-9.62,0.28,9.81,-9.53,0.08,-2.43,9.83
-1.90,-9.61,0.25,9.80,-9.55,0.08,-2.42,9.85
-1.92,-9.61,0.27,9.80,-9.59,0.10,-2.38,9.88
-1.89,-9.65,0.25,9.83,-9.56,0.08,-2.40,9.86
-1.90,-9.66,0.23,9.85,-9.57,0.07,-2.43,9.87
-1.91,-9.63,0.22,9.82,-9.58,0.07,-2.42,9.88
-1.91,-9.64,0.24,9.83,-9.57,0.08,-2.43,9.87
-1.90,-9.60,0.23,9.79,-9.56,0.08,-2.45,9.87
-1.93,-9.62,0.23,9.81,-9.55,0.06,-2.45,9.86
-1.90,-9.64,0.24,9.83,-9.57,0.07,-2.46,9.88
-1.90,-9.63,0.29,9.82,-9.53,0.06,-2.46,9.85
-1.92,-9.61,0.25,9.81,-9.54,0.08,-2.46,9.85
-1.89,-9.60,0.27,9.79,-9.56,0.09,-2.44,9.86
-1.90,-9.60,0.25,9.79,-9.57,0.09,-2.44,9.88
-1.89,-9.60,0.24,9.78,-9.56,0.08,-2.45,9.87
-1.95,-9.63,0.24,9.83,-9.58,0.08,-2.47,9.89
-1.91,-9.61,0.26,9.80,-9.56,0.07,-2.44,9.87
-1.88,-9.61,0.17,9.80,-9.55,0.09,-2.41,9.85
-1.94,-9.67,0.21,9.87,-9.56,0.09,-2.43,9.86
-2.00,-9.66,0.27,9.87,-9.56,0.10,-2.50,9.88
-1.94,-9.61,0.39,9.81,-9.52,0.08,-2.43,9.82
-1.91,-9.57,0.27,9.76,-9.50,0.08,-2.38,9.79
-1.85,-9.51,0.16,9.69,-9.54,0.08,-2.53,9.88
-1.85,-9.66,0.22,9.84,-9.52,0.05,-2.39,9.81
-1.82,-9.55,0.12,9.72,-9.54,0.06,-2.45,9.85
-1.90,-9.63,0.25,9.82,-9.52,0.08,-2.51,9.85
-1.97,-9.63,0.49,9.84,-9.51,0.08,-2.49,9.83
-1.93,-9.57,0.27,9.76,-9.50,0.10,-2.41,9.80
-1.98,-9.60,0.12,9.80,-9.55,0.14,-2.47,9.87
-1.98,-9.63,0.14,9.83,-9.55,0.09,-2.42,9.85
-1.96,-9.61,0.28,9.81,-9.60,0.11,-2.37,9.89
-1.91,-9.69,0.28,9.88,-9.58,0.14,-2.39,9.87
-1.91,-9.67,0.25,9.86,-9.65,0.08,-2.42,9.95
-1.88,-9.65,0.29,9.84,-9.62,0.05,-2.41,9.92
-1.91,-9.65,0.29,9.84,-9.58,0.08,-2.40,9.88
-1.93,-9.61,0.32,9.81,-9.54,0.09,-2.40,9.84
-1.93,-9.61,0.31,9.81,-9.52,0.10,-2.40,9.82
-1.93,-9.60,0.28,9.80,-9.57,0.08,-2.36,9.86
-1.91,-9.54,0.20,9.73,-9.53,0.08,-2.37,9.82
-1.91,-9.61,0.32,9.81,-9.56,0.09,-2.39,9.86
-1.90,-9.61,0.24,9.80,-9.57,0.08,-2.36,9.85
-1.88,-9.61,0.25,9.80,-9.53,0.07,-2.34,9.81
-1.89,-9.64,0.33,9.83,-9.56,0.07,-2.39,9.86
-1.90,-9.61,0.20,9.80,-9.58,0.09,-2.37,9.87
-1.93,-9.59,0.24,9.79,-9.57,0.10,-2.40,9.87
-1.94,-9.63,0.29,9.83,-9.60,0.11,-2.40,9.90
-1.95,-9.65,0.14,9.85,-9.57,0.13,-2.39,9.86
-1.93,-9.63,0.16,9.82,-9.62,0.14,-2.35,9.90
-1.89,-9.66,0.14,9.85,-9.57,0.09,-2.37,9.86
-1.94,-9.65,0.22,9.84,-9.63,0.12,-2.43,9.93
-1.96,-9.68,0.29,9.88,-9.59,0.08,-2.30,9.86
-1.89,-9.63,0.17,9.81,-9.59,0.10,-2.33,9.87
-1.93,-9.65,0.27,9.85,-9.54,0.07,-2.40,9.83
-1.93,-9.61,0.24,9.80,-9.56,0.09,-2.42,9.86
-1.90,-9.55,0.15,9.74,-9.54,0.12,-2.39,9.83
-1.91,-9.59,0.16,9.78,-9.52,0.10,-2.35,9.81
-1.86,-9.61,0.09,9.79,-9.54,0.11,-2.35,9.83
-1.85,-9.58,0.12,9.76,-9.53,0.08,-2.34,9.82
-1.88,-9.66,0.32,9.84,-9.55,0.06,-2.37,9.84
-1.90,-9.63,0.20,9.82,-9.56,0.11,-2.41,9.86
-1.91,-9.61,0.18,9.80,-9.56,0.11,-2.41,9.86
-1.89,-9.58,0.15,9.77,-9.57,0.11,-2.37,9.85
-1.89,-9.67,0.25,9.86,-9.57,0.08,-2.37,9.86
-1.89,-9.65,0.27,9.84,-9.57,0.10,-2.37,9.86
-1.91,-9.61,0.23,9.80,-9.56,0.11,-2.35,9.84
-1.91,-9.61,0.22,9.80,-9.60,0.09,-2.34,9.88
-1.90,-9.69,0.31,9.88,-9.59,0.10,-2.36,9.87
-1.91,-9.63,0.29,9.82,-9.57,0.06,-2.35,9.85
-1.91,-9.61,0.23,9.80,-9.58,0.08,-2.36,9.87
-1.90,-9.63,0.24,9.81,-9.56,0.09,-2.38,9.85
-1.90,-9.64,0.29,9.83,-9.61,0.12,-2.37,9.90
-1.94,-9.65,0.30,9.85,-9.58,0.11,-2.34,9.86
-1.90,-9.63,0.15,9.82,-9.57,0.12,-2.39,9.87
-1.88,-9.63,0.16,9.81,-9.57,0.10,-2.38,9.87
-1.90,-9.62,0.22,9.81,-9.53,0.11,-2.38,9.83
-1.88,-9.62,0.21,9.80,-9.57,0.11,-2.39,9.86
-1.90,-9.61,0.25,9.80,-9.56,0.10,-2.35,9.85
-1.90,-9.62,0.26,9.81,-9.58,0.12,-2.35,9.87
-1.90,-9.60,0.24,9.79,-9.55,0.11,-2.36,9.84
-1.90,-9.60,0.30,9.79,-9.57,0.08,-2.35,9.86
-1.90,-9.62,0.27,9.81,-9.60,0.09,-2.35,9.88
-1.92,-9.58,0.29,9.78,-9.59,0.10,-2.33,9.87
-1.93,-9.64,0.11,9.83,-9.58,0.13,-2.34,9.86
-1.94,-9.64,0.19,9.84,-9.59,0.09,-2.38,9.88
-1.91,-9.61,0.22,9.81,-9.57,0.12,-2.33,9.85
-1.89,-9.64,0.18,9.82,-9.58,0.08,-2.35,9.86
-1.90,-9.67,0.15,9.86,-9.62,0.09,-2.37,9.90
-1.91,-9.63,0.26,9.82,-9.58,0.12,-2.32,9.86
-1.89,-9.64,0.21,9.82,-9.56,0.10,-2.34,9.84
-1.90,-9.63,0.25,9.82,-9.57,0.11,-2.37,9.86
-1.89,-9.60,0.28,9.79,-9.60,0.08,-2.35,9.88
-1.92,-9.65,0.21,9.84,-9.58,0.10,-2.33,9.86
-1.90,-9.60,0.20,9.79,-9.60,0.10,-2.34,9.88
-1.93,-9.61,0.24,9.81,-9.60,0.09,-2.35,9.89
-1.91,-9.64,0.25,9.83,-9.59,0.11,-2.33,9.87
-1.90,-9.61,0.20,9.79,-9.57,0.08,-2.30,9.84
-1.89,-9.61,0.20,9.80,-9.58,0.11,-2.31,9.86
-1.96,-9.67,0.25,9.87,-9.60,0.14,-2.37,9.88
-1.97,-9.65,0.45,9.86,-9.61,0.12,-2.37,9.90
-1.94,-9.60,0.20,9.79,-9.54,0.10,-2.30,9.81
-1.83,-9.48,0.13,9.66,-9.62,0.12,-2.46,9.93
-1.85,-9.74,0.19,9.91,-9.54,0.07,-2.23,9.80
-1.85,-9.66,0.14,9.83,-9.58,0.10,-2.27,9.84
-1.93,-9.65,0.31,9.84,-9.56,0.11,-2.44,9.87
-1.97,-9.59,0.36,9.80,-9.53,0.13,-2.33,9.82
-1.92,-9.54,0.31,9.74,-9.57,0.13,-2.31,9.85
-1.91,-9.56,0.19,9.75,-9.54,0.10,-2.31,9.81
-1.94,-9.51,0.03,9.70,-9.54,0.12,-2.35,9.82
-1.95,-9.64,0.26,9.83,-9.58,0.14,-2.33,9.86
-1.89,-9.68,0.16,9.86,-9.60,0.14,-2.33,9.88
-1.89,-9.64,0.19,9.83,-9.62,0.14,-2.32,9.89
-1.87,-9.64,0.25,9.82,-9.61,0.08,-2.30,9.89
-1.91,-9.66,0.28,9.85,-9.59,0.09,-2.32,9.87
-1.93,-9.66,0.29,9.86,-9.58,0.12,-2.31,9.86
-1.95,-9.65,0.27,9.85,-9.59,0.11,-2.25,9.85
-1.95,-9.60,0.23,9.80,-9.58,0.13,-2.30,9.85
-1.93,-9.61,0.23,9.80,-9.59,0.11,-2.28,9.86
-1.93,-9.57,0.20,9.77,-9.57,0.12,-2.29,9.84
-1.88,-9.60,0.29,9.79,-9.58,0.10,-2.26,9.84
-1.88,-9.62,0.28,9.80,-9.62,0.11,-2.28,9.89
-1.90,-9.60,0.33,9.80,-9.60,0.07,-2.26,9.86
-1.91,-9.60,0.20,9.79,-9.57,0.12,-2.32,9.85
-1.89,-9.62,0.22,9.80,-9.56,0.09,-2.29,9.83
-1.92,-9.62,0.22,9.81,-9.59,0.11,-2.30,9.86
-1.94,-9.64,0.18,9.84,-9.59,0.11,-2.30,9.86
-1.94,-9.63,0.20,9.82,-9.56,0.11,-2.30,9.84
-1.90,-9.62,0.23,9.81,-9.63,0.11,-2.28,9.89
-1.90,-9.64,0.26,9.83,-9.56,0.12,-2.28,9.82
-1.96,-9.64,0.19,9.83,-9.60,0.14,-2.29,9.87
-1.94,-9.70,0.31,9.90,-9.62,0.11,-2.27,9.88
-1.87,-9.61,0.30,9.80,-9.60,0.11,-2.30,9.87
-1.90,-9.60,0.21,9.79,-9.56,0.07,-2.29,9.83
-1.91,-9.64,0.17,9.83,-9.60,0.09,-2.31,9.88
-1.93,-9.62,0.23,9.81,-9.57,0.13,-2.30,9.84
-1.90,-9.61,0.18,9.80,-9.57,0.14,-2.28,9.84
-1.86,-9.59,0.21,9.77,-9.58,0.13,-2.30,9.86
-1.87,-9.63,0.16,9.81,-9.57,0.09,-2.27,9.83
-1.89,-9.64,0.25,9.82,-9.59,0.09,-2.29,9.86
-1.89,-9.64,0.21,9.83,-9.61,0.10,-2.28,9.88
-1.93,-9.65,0.17,9.84,-9.62,0.12,-2.30,9.89
-1.91,-9.63,0.23,9.82,-9.63,0.10,-2.30,9.90
-1.89,-9.63,0.27,9.81,-9.58,0.11,-2.29,9.85
-1.90,-9.63,0.23,9.82,-9.58,0.11,-2.29,9.85
-1.90,-9.61,0.23,9.80,-9.61,0.08,-2.27,9.88
-1.88,-9.59,0.20,9.77,-9.58,0.10,-2.31,9.86
-1.92,-9.59,0.19,9.79,-9.58,0.11,-2.30,9.85
-1.90,-9.60,0.19,9.79,-9.61,0.09,-2.28,9.88
-1.89,-9.62,0.18,9.80,-9.59,0.12,-2.27,9.86
-1.92,-9.64,0.20,9.83,-9.61,0.12,-2.28,9.87
-1.92,-9.61,0.22,9.80,-9.59,0.11,-2.29,9.86
-1.91,-9.63,0.21,9.82,-9.57,0.11,-2.27,9.84
-1.90,-9.63,0.24,9.82,-9.58,0.10,-2.30,9.85
-1.91,-9.63,0.20,9.82,-9.57,0.12,-2.30,9.84
-1.91,-9.61,0.21,9.80,-9.59,0.11,-2.27,9.85
-1.89,-9.64,0.20,9.82,-9.60,0.10,-2.28,9.87
-1.89,-9.63,0.21,9.81,-9.60,0.14,-2.28,9.86
-1.91,-9.56,0.22,9.75,-9.58,0.11,-2.30,9.85
-1.88,-9.63,0.20,9.81,-9.58,0.11,-2.27,9.84
-1.87,-9.63,0.18,9.81,-9.60,0.09,-2.29,9.87
-1.90,-9.62,0.21,9.81,-9.60,0.09,-2.27,9.87
-1.89,-9.63,0.21,9.82,-9.61,0.12,-2.28,9.88
-1.89,-9.64,0.20,9.82,-9.60,0.09,-2.29,9.87
-1.90,-9.64,0.20,9.83,-9.57,0.12,-2.30,9.84
-1.91,-9.63,0.18,9.82,-9.62,0.11,-2.28,9.89
-1.91,-9.63,0.19,9.82,-9.60,0.13,-2.29,9.87
-1.92,-9.64,0.20,9.83,-9.61,0.13,-2.31,9.88
-1.90,-9.62,0.20,9.81,-9.59,0.12,-2.26,9.86
-1.90,-9.67,0.15,9.86,-9.62,0.10,-2.26,9.88
-1.89,-9.65,0.17,9.83,-9.59,0.13,-2.26,9.85
-1.89,-9.64,0.05,9.82,-9.60,0.11,-2.29,9.87
-1.88,-9.61,0.19,9.79,-9.61,0.10,-2.28,9.88
-1.91,-9.62,0.18,9.81,-9.60,0.11,-2.29,9.87
-1.91,-9.62,0.12,9.80,-9.60,0.11,-2.29,9.86
-1.87,-9.62,0.08,9.80,-9.57,0.10,-2.28,9.84
-1.90,-9.61,0.19,9.80,-9.59,0.08,-2.30,9.86
-1.88,-9.60,0.22,9.79,-9.56,0.10,-2.27,9.83
-1.89,-9.62,0.25,9.80,-9.60,0.10,-2.27,9.86
-1.91,-9.63,0.24,9.82,-9.58,0.13,-2.28,9.85
-1.89,-9.62,0.20,9.81,-9.60,0.14,-2.27,9.87
-1.89,-9.64,0.20,9.83,-9.62,0.11,-2.27,9.88
-1.88,-9.66,0.20,9.85,-9.59,0.13,-2.27,9.86
-1.83,-9.62,0.17,9.79,-9.60,0.11,-2.27,9.86
-1.90,-9.63,0.18,9.81,-9.61,0.17,-2.29,9.88
-1.98,-9.67,0.31,9.88,-9.63,0.14,-2.34,9.91
-1.90,-9.64,0.31,9.83,-9.57,0.12,-2.20,9.81
-1.89,-9.56,0.16,9.75,-9.56,0.11,-2.29,9.84
-1.84,-9.67,0.09,9.85,-9.61,0.10,-2.36,9.90
-1.88,-9.66,0.15,9.84,-9.54,0.09,-2.19,9.79
-1.87,-9.62,0.17,9.80,-9.63,0.10,-2.36,9.91
-1.93,-9.65,0.24,9.84,-9.60,0.12,-2.33,9.88
-1.94,-9.60,0.25,9.80,-9.57,0.12,-2.32,9.85
-1.89,-9.54,0.19,9.73,-9.54,0.10,-2.26,9.81
-1.93,-9.57,0.13,9.76,-9.55,0.09,-2.30,9.83
-1.94,-9.60,0.12,9.79,-9.58,0.13,-2.32,9.86
-1.91,-9.61,0.14,9.80,-9.58,0.14,-2.28,9.85
-1.87,-9.66,0.16,9.84,-9.64,0.14,-2.29,9.91
-1.91,-9.67,0.19,9.86,-9.64,0.09,-2.24,9.90
-1.90,-9.68,0.21,9.86,-9.66,0.10,-2.23,9.92
-1.92,-9.70,0.25,9.89,-9.63,0.11,-2.29,9.90
-1.94,-9.66,0.21,9.85,-9.61,0.13,-2.23,9.86
-1.91,-9.66,0.17,9.85,-9.62,0.14,-2.26,9.88
-1.89,-9.63,0.17,9.81,-9.61,0.12,-2.25,9.87
-1.90,-9.62,0.17,9.80,-9.60,0.12,-2.24,9.85
-1.88,-9.62,0.19,9.80,-9.58,0.09,-2.24,9.84
-1.87,-9.63,0.20,9.81,-9.57,0.11,-2.24,9.83
-1.86,-9.60,0.23,9.78,-9.60,0.10,-2.27,9.87
-1.87,-9.60,0.25,9.79,-9.57,0.12,-2.30,9.85
-1.92,-9.60,0.22,9.80,-9.54,0.10,-2.30,9.82
-1.93,-9.58,0.19,9.78,-9.57,0.12,-2.32,9.85
-1.93,-9.58,0.19,9.77,-9.51,0.11,-2.30,9.79
-1.94,-9.60,0.18,9.80,-9.60,0.11,-2.30,9.87
-1.89,-9.62,0.17,9.81,-9.59,0.10,-2.28,9.86
-1.87,-9.63,0.19,9.81,-9.63,0.10,-2.31,9.90
-1.89,-9.66,0.12,9.84,-9.63,0.11,-2.32,9.91
-1.94,-9.72,0.27,9.91,-9.66,0.08,-2.33,9.94
-1.89,-9.65,0.28,9.84,-9.65,0.10,-2.26,9.91
-1.89,-9.62,0.19,9.81,-9.61,0.09,-2.31,9.89
-1.89,-9.65,0.16,9.84,-9.60,0.08,-2.31,9.87
-1.92,-9.63,0.20,9.82,-9.56,0.09,-2.30,9.83
-1.87,-9.62,0.22,9.80,-9.58,0.13,-2.33,9.86
-1.88,-9.60,0.37,9.79,-9.58,0.08,-2.27,9.85
-1.83,-9.60,0.17,9.77,-9.59,0.11,-2.25,9.85
-1.85,-9.62,0.19,9.80,-9.61,0.06,-2.30,9.88
-1.88,-9.68,0.31,9.87,-9.62,0.07,-2.28,9.88
-1.87,-9.63,0.23,9.81,-9.60,0.06,-2.31,9.87
-1.91,-9.75,0.09,9.94,-9.57,0.09,-2.33,9.85
-1.90,-9.61,-0.09,9.80,-9.55,0.08,-2.32,9.83
-1.91,-9.67,0.26,9.86,-9.58,0.07,-2.34,9.86
-1.88,-9.56,0.10,9.75,-9.57,0.10,-2.37,9.86
-1.89,-9.57,0.24,9.76,-9.57,0.09,-2.35,9.86
-1.86,-9.59,0.30,9.77,-9.57,0.10,-2.36,9.86
-1.86,-9.60,0.25,9.78,-9.58,0.07,-2.32,9.86
-1.86,-9.58,0.27,9.76,-9.58,0.11,-2.31,9.85
-1.89,-9.64,0.28,9.82,-9.61,0.11,-2.31,9.88
-1.92,-9.69,0.22,9.88,-9.62,0.09,-2.32,9.89
-1.92,-9.67,0.21,9.86,-9.61,0.09,-2.32,9.89
-1.93,-9.68,0.26,9.87,-9.61,0.09,-2.31,9.89
-1.89,-9.63,0.33,9.82,-9.61,0.10,-2.32,9.89
-1.90,-9.63,0.23,9.82,-9.58,0.11,-2.34,9.86
-1.87,-9.64,0.27,9.82,-9.57,0.07,-2.30,9.84
-1.90,-9.60,0.16,9.78,-9.58,0.09,-2.32,9.85
-1.88,-9.65,0.25,9.83,-9.54,0.07,-2.33,9.82
-1.87,-9.65,0.30,9.84,-9.56,0.08,-2.34,9.84
-1.89,-9.61,0.30,9.79,-9.56,0.11,-2.32,9.83
-1.87,-9.60,0.30,9.79,-9.59,0.09,-2.31,9.86
-1.92,-9.62,0.30,9.82,-9.59,0.11,-2.34,9.87
-1.92,-9.63,0.25,9.82,-9.61,0.09,-2.32,9.89
-1.91,-9.64,0.24,9.83,-9.60,0.09,-2.33,9.88
-1.90,-9.61,0.33,9.80,-9.57,0.06,-2.34,9.86
-1.88,-9.61,0.21,9.80,-9.57,0.07,-2.36,9.86
-1.88,-9.62,0.25,9.80,-9.57,0.09,-2.36,9.85
-1.86,-9.64,0.32,9.82,-9.60,0.09,-2.33,9.88
-1.89,-9.61,0.35,9.80,-9.58,0.08,-2.31,9.85
-1.86,-9.63,0.32,9.81,-9.60,0.09,-2.32,9.88
-1.87,-9.64,0.31,9.82,-9.62,0.06,-2.32,9.90
-1.88,-9.63,0.24,9.82,-9.62,0.07,-2.35,9.91
-1.92,-9.65,0.24,9.84,-9.60,0.09,-2.32,9.88
-1.89,-9.63,0.27,9.82,-9.60,0.10,-2.34,9.88
-1.93,-9.72,0.28,9.91,-9.62,0.08,-2.37,9.90
-1.91,-9.66,0.12,9.85,-9.58,0.08,-2.36,9.87
-1.91,-9.65,0.37,9.84,-9.57,0.06,-2.34,9.86
-1.88,-9.60,0.27,9.79,-9.57,0.06,-2.36,9.85
-1.89,-9.60,0.31,9.79,-9.56,0.08,-2.37,9.85
-1.79,-9.58,0.22,9.75,-9.54,0.05,-2.38,9.83
-1.88,-9.66,0.34,9.84,-9.55,0.06,-2.37,9.84
-1.96,-9.66,0.38,9.86,-9.62,0.07,-2.45,9.93
-1.89,-9.58,0.38,9.77,-9.53,0.03,-2.27,9.80
-1.83,-9.54,0.27,9.72,-9.55,0.07,-2.44,9.86
-1.83,-9.61,0.21,9.79,-9.55,0.04,-2.46,9.86
-1.87,-9.68,0.28,9.86,-9.52,0.05,-2.27,9.79
-1.80,-9.61,0.27,9.78,-9.57,0.11,-2.54,9.90
-1.93,-9.63,0.32,9.83,-9.46,0.10,-2.48,9.78
-1.94,-9.54,0.31,9.74,-9.54,0.15,-2.47,9.85
-1.93,-9.53,0.26,9.73,-9.45,0.15,-2.41,9.75
-1.96,-9.56,0.21,9.76,-9.50,0.15,-2.45,9.82
-1.98,-9.63,0.21,9.83,-9.54,0.14,-2.41,9.84
-1.96,-9.63,0.24,9.83,-9.61,0.12,-2.37,9.90
-1.90,-9.63,0.21,9.81,-9.64,0.11,-2.41,9.94
-1.90,-9.68,0.18,9.87,-9.65,0.09,-2.43,9.95
-1.93,-9.68,0.22,9.87,-9.59,0.11,-2.42,9.89
-1.93,-9.60,0.30,9.80,-9.55,0.11,-2.44,9.86
-1.96,-9.61,0.42,9.82,-9.52,0.11,-2.43,9.83
-1.93,-9.55,0.22,9.74,-9.50,0.11,-2.40,9.80
-1.90,-9.58,0.23,9.77,-9.49,0.11,-2.42,9.80
-1.89,-9.55,0.30,9.74,-9.52,0.12,-2.39,9.82
-1.90,-9.54,0.26,9.73,-9.54,0.12,-2.35,9.83
-1.88,-9.56,0.29,9.75,-9.54,0.10,-2.38,9.83
-1.91,-9.59,0.24,9.78,-9.54,0.09,-2.39,9.84
-1.92,-9.58,0.25,9.77,-9.58,0.13,-2.40,9.88
-1.93,-9.61,0.28,9.80,-9.56,0.15,-2.39,9.85
-1.95,-9.62,0.25,9.82,-9.59,0.14,-2.40,9.88
-1.96,-9.63,0.25,9.83,-9.57,0.13,-2.40,9.86
-1.95,-9.65,0.22,9.85,-9.59,0.14,-2.37,9.88
-1.88,-9.66,0.22,9.85,-9.59,0.13,-2.35,9.88
-1.95,-9.63,0.21,9.83,-9.58,0.12,-2.36,9.87
-1.95,-9.65,0.33,9.85,-9.60,0.13,-2.49,9.92
-1.93,-9.60,0.33,9.80,-9.57,0.11,-2.28,9.83
-1.96,-9.58,0.28,9.78,-9.55,0.11,-2.39,9.84
-1.99,-9.62,0.32,9.82,-9.53,0.14,-2.36,9.82
-1.99,-9.56,0.29,9.77,-9.55,0.14,-2.39,9.85
-1.98,-9.54,0.17,9.75,-9.58,0.14,-2.39,9.87
-1.94,-9.62,0.16,9.82,-9.60,0.15,-2.31,9.87
-1.93,-9.62,0.21,9.81,-9.55,0.14,-2.34,9.83
-1.89,-9.62,0.22,9.81,-9.57,0.10,-2.36,9.86
-1.90,-9.65,0.25,9.84,-9.59,0.13,-2.39,9.88
-1.91,-9.63,0.24,9.82,-9.59,0.11,-2.39,9.88
-1.92,-9.67,0.26,9.86,-9.59,0.11,-2.40,9.89
-1.96,-9.64,0.34,9.85,-9.60,0.09,-2.37,9.89
-1.92,-9.63,0.30,9.82,-9.58,0.13,-2.35,9.86
-1.93,-9.62,0.24,9.81,-9.59,0.09,-2.37,9.87
-1.91,-9.63,0.30,9.82,-9.58,0.08,-2.38,9.88
-1.91,-9.61,0.26,9.80,-9.60,0.10,-2.37,9.88
-1.90,-9.60,0.23,9.79,-9.60,0.12,-2.35,9.88
-1.88,-9.64,0.23,9.82,-9.59,0.11,-2.35,9.87
-1.90,-9.63,0.25,9.81,-9.57,0.09,-2.33,9.85
-1.94,-9.60,0.25,9.80,-9.59,0.11,-2.35,9.87
-1.96,-9.58,0.25,9.78,-9.59,0.11,-2.38,9.88
-1.94,-9.63,0.33,9.83,-9.58,0.12,-2.36,9.87
-1.93,-9.61,0.22,9.80,-9.59,0.10,-2.35,9.87
-1.93,-9.60,0.24,9.80,-9.57,0.10,-2.34,9.85
-1.90,-9.62,0.21,9.81,-9.58,0.09,-2.35,9.87
-1.91,-9.63,0.26,9.82,-9.57,0.10,-2.31,9.85
-1.90,-9.62,0.35,9.81,-9.56,0.13,-2.34,9.84
-1.92,-9.61,0.23,9.80,-9.57,0.12,-2.35,9.86
-1.92,-9.61,0.31,9.81,-9.57,0.11,-2.35,9.86
-1.91,-9.64,0.25,9.83,-9.61,0.09,-2.35,9.90
-1.90,-9.65,0.19,9.83,-9.59,0.11,-2.32,9.87
-1.88,-9.61,0.23,9.80,-9.58,0.09,-2.34,9.87
-1.92,-9.65,0.34,9.84,-9.57,0.08,-2.35,9.85
-1.91,-9.62,0.29,9.81,-9.57,0.07,-2.34,9.85
-1.89,-9.62,0.25,9.80,-9.56,0.12,-2.34,9.84
-1.94,-9.61,0.29,9.81,-9.58,0.10,-2.36,9.87
-1.91,-9.55,0.36,9.74,-9.56,0.12,-2.37,9.85
-1.92,-9.61,0.25,9.81,-9.59,0.09,-2.39,9.88
-1.93,-9.66,0.20,9.85,-9.60,0.11,-2.36,9.89
-1.92,-9.65,0.21,9.84,-9.59,0.09,-2.36,9.88
-1.90,-9.61,0.20,9.80,-9.60,0.10,-2.34,9.88
-1.89,-9.59,0.22,9.78,-9.61,0.10,-2.33,9.89
-1.93,-9.68,0.30,9.87,-9.62,0.10,-2.39,9.91
-1.94,-9.67,0.44,9.87,-9.60,0.12,-2.44,9.90
-1.94,-9.60,0.28,9.80,-9.55,0.10,-2.27,9.82
-1.85,-9.53,0.12,9.71,-9.60,0.12,-2.43,9.90
-1.87,-9.65,0.18,9.83,-9.56,0.09,-2.37,9.85
-1.85,-9.61,0.26,9.79,-9.57,0.08,-2.30,9.84
-1.90,-9.66,0.23,9.85,-9.60,0.15,-2.44,9.90
-1.98,-9.60,0.32,9.81,-9.53,0.12,-2.34,9.81
-1.98,-9.54,0.37,9.75,-9.51,0.13,-2.37,9.81
-1.92,-9.52,0.34,9.71,-9.54,0.12,-2.32,9.82
-1.96,-9.57,0.08,9.77,-9.55,0.11,-2.34,9.84
-1.97,-9.64,0.20,9.84,-9.57,0.13,-2.35,9.85
-1.92,-9.63,0.18,9.82,-9.61,0.12,-2.34,9.89
-1.89,-9.64,0.18,9.82,-9.61,0.11,-2.32,9.88
-1.88,-9.69,0.30,9.88,-9.64,0.11,-2.35,9.93
-1.92,-9.68,0.25,9.87,-9.63,0.08,-2.33,9.91
-1.95,-9.64,0.22,9.84,-9.60,0.12,-2.33,9.87
-1.92,-9.63,0.26,9.83,-9.57,0.15,-2.31,9.85
-1.93,-9.60,0.25,9.80,-9.58,0.10,-2.24,9.84
-1.92,-9.62,0.22,9.81,-9.56,0.14,-2.30,9.83
-1.93,-9.61,0.20,9.80,-9.60,0.12,-2.30,9.87
-1.89,-9.62,0.20,9.80,-9.57,0.09,-2.29,9.84
-1.90,-9.60,0.20,9.79,-9.56,0.10,-2.31,9.84
-1.87,-9.59,0.16,9.78,-9.58,0.10,-2.31,9.85
-1.90,-9.63,0.19,9.82,-9.60,0.11,-2.35,9.88
-1.91,-9.65,0.19,9.84,-9.63,0.09,-2.36,9.91
-1.91,-9.63,0.18,9.82,-9.58,0.11,-2.31,9.85
-1.94,-9.61,0.21,9.81,-9.62,0.10,-2.32,9.89
-1.94,-9.62,0.20,9.82,-9.60,0.12,-2.29,9.86
-1.86,-9.63,0.21,9.81,-9.58,0.11,-2.28,9.84
-1.91,-9.64,0.18,9.83,-9.60,0.11,-2.31,9.88
-1.92,-9.67,0.26,9.86,-9.61,0.11,-2.36,9.90
-1.92,-9.63,0.26,9.82,-9.62,0.11,-2.23,9.87
-1.90,-9.63,0.29,9.82,-9.64,0.12,-2.34,9.92
-1.91,-9.64,0.23,9.83,-9.58,0.07,-2.34,9.86
-1.89,-9.59,0.19,9.78,-9.60,0.11,-2.31,9.87
-1.92,-9.68,-0.02,9.87,-9.57,0.11,-2.28,9.84
-1.88,-9.64,0.16,9.82,-9.57,0.14,-2.29,9.84
-1.85,-9.61,0.24,9.79,-9.57,0.12,-2.30,9.85
-1.87,-9.62,0.14,9.80,-9.58,0.11,-2.29,9.85
-1.91,-9.63,0.23,9.82,-9.54,0.13,-2.31,9.82
-1.93,-9.62,0.28,9.81,-9.57,0.14,-2.32,9.84
-1.93,-9.62,0.26,9.81,-9.58,0.15,-2.33,9.86
-1.96,-9.62,0.28,9.82,-9.59,0.09,-2.31,9.86
-1.92,-9.63,0.25,9.82,-9.59,0.12,-2.31,9.86
-1.92,-9.60,0.22,9.79,-9.58,0.13,-2.31,9.85
-1.84,-9.61,0.22,9.78,-9.60,0.14,-2.28,9.87
-1.91,-9.60,0.24,9.79,-9.58,0.09,-2.32,9.86
-1.89,-9.54,0.21,9.73,-9.62,0.08,-2.30,9.89
-1.89,-9.64,0.19,9.83,-9.63,0.09,-2.28,9.90
-1.91,-9.65,0.25,9.84,-9.60,0.10,-2.30,9.87
-1.93,-9.67,0.25,9.86,-9.61,0.13,-2.29,9.88
-1.93,-9.66,0.25,9.85,-9.60,0.12,-2.31,9.88
-1.92,-9.59,0.23,9.79,-9.60,0.14,-2.30,9.87
-1.91,-9.61,0.21,9.80,-9.60,0.13,-2.31,9.88
-1.89,-9.63,0.12,9.82,-9.57,0.11,-2.30,9.85
-1.92,-9.63,0.21,9.82,-9.59,0.10,-2.30,9.86
-1.90,-9.63,0.25,9.82,-9.54,0.12,-2.30,9.82
-1.94,-9.60,0.22,9.80,-9.60,0.10,-2.30,9.87
-1.90,-9.63,0.28,9.82,-9.59,0.10,-2.29,9.86
-1.89,-9.58,0.16,9.77,-9.56,0.08,-2.28,9.83
-1.89,-9.63,0.24,9.82,-9.59,0.10,-2.30,9.86
-1.93,-9.63,0.21,9.82,-9.58,0.11,-2.32,9.86
-1.90,-9.61,0.23,9.80,-9.60,0.12,-2.30,9.87
-1.90,-9.62,0.17,9.81,-9.59,0.11,-2.30,9.87
-1.90,-9.62,0.22,9.81,-9.59,0.13,-2.30,9.87
-1.90,-9.63,0.21,9.82,-9.57,0.13,-2.30,9.84
-1.90,-9.63,0.08,9.81,-9.63,0.11,-2.30,9.90
-1.92,-9.67,0.12,9.86,-9.58,0.10,-2.29,9.86
-1.93,-9.63,0.22,9.82,-9.60,0.12,-2.31,9.87
-1.90,-9.63,0.21,9.82,-9.62,0.11,-2.31,9.89
-1.88,-9.62,0.15,9.80,-9.58,0.12,-2.31,9.86
-1.92,-9.62,0.17,9.81,-9.60,0.12,-2.29,9.87
-1.90,-9.62,0.18,9.81,-9.59,0.11,-2.29,9.86
-1.91,-9.61,0.21,9.80,-9.55,0.11,-2.30,9.82
-1.86,-9.58,0.19,9.76,-9.59,0.11,-2.29,9.86
-1.91,-9.62,0.20,9.81,-9.60,0.12,-2.30,9.87
-1.99,-9.68,0.33,9.89,-9.60,0.12,-2.37,9.89
-1.95,-9.58,0.27,9.78,-9.54,0.09,-2.21,9.80
-1.86,-9.50,0.13,9.69,-9.59,0.11,-2.42,9.90
-1.85,-9.64,0.12,9.81,-9.57,0.11,-2.29,9.84
-1.89,-9.66,0.17,9.84,-9.57,0.12,-2.17,9.81
-1.89,-9.65,0.27,9.84,-9.62,0.12,-2.38,9.91
-1.95,-9.65,0.26,9.85,-9.58,0.12,-2.31,9.86
-1.94,-9.57,0.26,9.76,-9.58,0.14,-2.29,9.85
-1.92,-9.52,0.20,9.71,-9.56,0.11,-2.29,9.83
-1.92,-9.60,0.18,9.79,-9.55,0.08,-2.29,9.82
-1.95,-9.60,0.15,9.80,-9.57,0.15,-2.29,9.84
-1.91,-9.62,0.20,9.81,-9.62,0.13,-2.26,9.88
-1.86,-9.44,0.16,9.62,-9.62,0.14,-2.28,9.89
-1.93,-9.72,0.18,9.91,-9.64,0.14,-2.28,9.91
-1.89,-9.70,0.10,9.88,-9.66,0.09,-2.27,9.93
-1.95,-9.65,0.23,9.84,-9.57,0.12,-2.27,9.83
-1.92,-9.62,0.24,9.81,-9.59,0.13,-2.25,9.85
-1.92,-9.59,0.22,9.79,-9.57,0.12,-2.24,9.83
-1.93,-9.61,0.21,9.80,-9.57,0.12,-2.22,9.82
-1.89,-9.63,0.18,9.82,-9.61,0.13,-2.25,9.87
-1.90,-9.60,0.19,9.79,-9.58,0.09,-2.23,9.84
-1.90,-9.62,0.21,9.81,-9.60,0.10,-2.24,9.85
-1.89,-9.60,0.21,9.79,-9.60,0.10,-2.25,9.86
-1.91,-9.62,0.24,9.81,-9.59,0.10,-2.25,9.85
-1.90,-9.62,0.21,9.81,-9.58,0.10,-2.23,9.84
-1.93,-9.62,0.19,9.82,-9.62,0.07,-2.34,9.90
-1.89,-9.52,0.23,9.71,-9.56,0.11,-2.21,9.82
-1.90,-9.68,0.22,9.86,-9.55,0.10,-2.24,9.81
-1.91,-9.64,0.13,9.83,-9.63,0.14,-2.24,9.89
-1.88,-9.67,0.22,9.85,-9.61,0.11,-2.25,9.87
-1.94,-9.64,0.18,9.83,-9.66,0.11,-2.28,9.93
-1.92,-9.69,0.27,9.88,-9.62,0.10,-2.22,9.87
-1.85,-9.61,0.26,9.79,-9.63,0.10,-2.26,9.89
-1.89,-9.61,0.20,9.80,-9.56,0.08,-2.27,9.82
-1.94,-9.61,0.21,9.80,-9.56,0.09,-2.29,9.83
-1.93,-9.60,0.20,9.80,-9.55,0.10,-2.29,9.82
-1.87,-9.57,0.18,9.75,-9.60,0.15,-2.26,9.86
-1.90,-9.60,0.21,9.78,-9.59,0.14,-2.27,9.85
-1.86,-9.60,0.19,9.78,-9.59,0.09,-2.26,9.85
-1.86,-9.62,0.15,9.80,-9.63,0.11,-2.24,9.88
-1.87,-9.65,0.02,9.83,-9.60,0.12,-2.26,9.86
-1.91,-9.67,0.14,9.86,-9.59,0.11,-2.28,9.86
-1.91,-9.66,0.24,9.85,-9.60,0.13,-2.26,9.86
-1.90,-9.62,0.21,9.81,-9.63,0.10,-2.26,9.89
-1.90,-9.62,0.26,9.81,-9.62,0.11,-2.28,9.89
-1.88,-9.60,0.23,9.78,-9.58,0.11,-2.24,9.84
-1.88,-9.62,0.25,9.81,-9.60,0.11,-2.28,9.86
-1.89,-9.62,0.18,9.81,-9.58,0.12,-2.25,9.85
-1.90,-9.61,0.18,9.80,-9.60,0.09,-2.27,9.87
-1.91,-9.62,0.16,9.80,-9.57,0.10,-2.26,9.83
-1.89,-9.61,0.18,9.80,-9.60,0.09,-2.25,9.86
-1.90,-9.64,0.20,9.83,-9.62,0.12,-2.29,9.89
-1.89,-9.62,0.19,9.80,-9.62,0.10,-2.28,9.89
-1.92,-9.62,0.19,9.81,-9.60,0.10,-2.28,9.87
-1.89,-9.63,0.20,9.82,-9.59,0.13,-2.28,9.86
-1.92,-9.62,0.19,9.81,-9.60,0.11,-2.27,9.86
-1.92,-9.61,0.19,9.80,-9.60,0.11,-2.26,9.86
-1.91,-9.61,0.19,9.80,-9.58,0.12,-2.29,9.85
-1.90,-9.62,0.20,9.81,-9.56,0.11,-2.28,9.83
-1.89,-9.62,0.21,9.81,-9.59,0.12,-2.26,9.86
-1.92,-9.60,0.21,9.79,-9.60,0.09,-2.25,9.86
-1.89,-9.62,0.21,9.81,-9.62,0.11,-2.26,9.88
-1.91,-9.65,0.17,9.83,-9.61,0.10,-2.25,9.87
-1.90,-9.61,0.21,9.80,-9.61,0.12,-2.25,9.87
-1.91,-9.62,0.20,9.81,-9.61,0.14,-2.27,9.88
-1.92,-9.61,0.20,9.80,-9.61,0.10,-2.25,9.87
-1.89,-9.62,0.21,9.80,-9.59,0.10,-2.28,9.86
-1.89,-9.63,0.21,9.82,-9.59,0.12,-2.26,9.85
-1.88,-9.61,0.19,9.79,-9.57,0.12,-2.26,9.84
-1.89,-9.65,0.18,9.84,-9.62,0.10,-2.25,9.88
-1.89,-9.62,0.20,9.80,-9.59,0.12,-2.25,9.85
-1.92,-9.62,0.21,9.81,-9.61,0.11,-2.27,9.88
-1.91,-9.63,0.20,9.82,-9.60,0.07,-2.27,9.86
-1.93,-9.63,0.18,9.83,-9.60,0.11,-2.28,9.87
-1.95,-9.63,0.18,9.83,-9.62,0.13,-2.30,9.90
-1.91,-9.63,0.18,9.82,-9.62,0.11,-2.29,9.88
-1.89,-9.61,0.23,9.80,-9.59,0.12,-2.28,9.86
-1.85,-9.61,0.17,9.79,-9.61,0.12,-2.27,9.87
-1.92,-9.65,0.21,9.84,-9.58,0.12,-2.32,9.86
-1.99,-9.67,0.31,9.88,-9.63,0.17,-2.36,9.91
-1.94,-9.60,0.34,9.80,-9.56,0.12,-2.16,9.80
-1.90,-9.52,0.14,9.71,-9.61,0.13,-2.40,9.91
-1.85,-9.68,0.08,9.86,-9.58,0.11,-2.27,9.84
-1.87,-9.65,0.18,9.83,-9.54,0.07,-2.14,9.78
-1.89,-9.64,0.15,9.82,-9.63,0.13,-2.34,9.91
-1.96,-9.66,0.26,9.86,-9.60,0.09,-2.32,9.87
-1.96,-9.64,0.29,9.84,-9.58,0.13,-2.32,9.86
-1.91,-9.58,0.20,9.77,-9.55,0.11,-2.29,9.83
-1.91,-9.59,0.14,9.78,-9.57,0.12,-2.26,9.83
-1.94,-9.61,0.14,9.80,-9.57,0.15,-2.29,9.84
-1.93,-9.61,0.18,9.80,-9.64,0.14,-2.27,9.90
-1.87,-9.63,0.15,9.81,-9.64,0.14,-2.24,9.90
-1.89,-9.68,0.20,9.87,-9.67,0.13,-2.24,9.92
-1.90,-9.67,0.22,9.86,-9.62,0.10,-2.27,9.88
-1.91,-9.67,0.26,9.86,-9.60,0.09,-2.27,9.87
-1.94,-9.64,0.24,9.84,-9.59,0.12,-2.24,9.85
-1.93,-9.61,0.20,9.81,-9.57,0.15,-2.25,9.84
-1.92,-9.60,0.20,9.80,-9.59,0.12,-2.25,9.85
-1.91,-9.60,0.21,9.79,-9.60,0.13,-2.23,9.86
-1.89,-9.60,0.19,9.78,-9.58,0.11,-2.22,9.83
-1.90,-9.60,0.18,9.79,-9.60,0.11,-2.23,9.86
-1.89,-9.58,0.18,9.77,-9.58,0.12,-2.24,9.84
-1.91,-9.60,0.17,9.79,-9.58,0.13,-2.23,9.83
-1.90,-9.61,0.17,9.80,-9.58,0.08,-2.31,9.85
-1.92,-9.60,0.19,9.80,-9.57,0.12,-2.27,9.84
-1.92,-9.63,0.15,9.82,-9.57,0.11,-2.28,9.84
-1.89,-9.61,0.08,9.79,-9.60,0.13,-2.27,9.87
-1.87,-9.63,0.25,9.82,-9.60,0.12,-2.24,9.86
-1.87,-9.63,0.25,9.81,-9.60,0.13,-2.24,9.86
-1.91,-9.62,0.17,9.81,-9.63,0.13,-2.27,9.90
-1.94,-9.66,0.26,9.86,-9.63,0.08,-2.31,9.91
-1.89,-9.62,0.21,9.80,-9.62,0.10,-2.27,9.89
-1.92,-9.63,0.15,9.82,-9.58,0.09,-2.27,9.85
-1.94,-9.62,0.13,9.81,-9.57,0.12,-2.30,9.84
-1.96,-9.59,0.14,9.79,-9.57,0.14,-2.28,9.84
-1.90,-9.58,0.15,9.77,-9.57,0.15,-2.30,9.84
-1.87,-9.60,0.18,9.78,-9.59,0.12,-2.24,9.85
-1.85,-9.59,0.19,9.77,-9.59,0.10,-2.28,9.86
-1.84,-9.61,0.23,9.78,-9.60,0.08,-2.26,9.87
-1.88,-9.62,0.23,9.80,-9.62,0.11,-2.27,9.89
-1.93,-9.67,0.14,9.86,-9.64,0.11,-2.28,9.91
-1.91,-9.65,0.18,9.84,-9.63,0.12,-2.27,9.89
-1.89,-9.62,0.18,9.81,-9.61,0.08,-2.24,9.87
-1.90,-9.65,0.17,9.84,-9.61,0.08,-2.25,9.87
-1.91,-9.66,0.19,9.85,-9.61,0.10,-2.24,9.87
-1.89,-9.62,0.21,9.80,-9.61,0.11,-2.25,9.87
-1.89,-9.61,0.20,9.80,-9.60,0.10,-2.25,9.87
-1.88,-9.63,0.21,9.82,-9.56,0.09,-2.28,9.83
-1.91,-9.62,0.19,9.81,-9.60,0.09,-2.26,9.86
-1.88,-9.63,0.21,9.81,-9.60,0.10,-2.24,9.86
-1.90,-9.61,0.21,9.80,-9.59,0.11,-2.24,9.85
-1.90,-9.61,0.20,9.80,-9.60,0.12,-2.27,9.86
-1.86,-9.61,0.17,9.79,-9.57,0.12,-2.26,9.84
-1.89,-9.63,0.20,9.82,-9.59,0.12,-2.28,9.85
-1.87,-9.62,0.19,9.80,-9.58,0.09,-2.25,9.84
-1.87,-9.64,0.17,9.82,-9.61,0.10,-2.28,9.88
-1.88,-9.63,0.18,9.81,-9.60,0.10,-2.27,9.87
-1.89,-9.62,0.20,9.80,-9.60,0.11,-2.27,9.86
-1.90,-9.63,0.19,9.81,-9.62,0.08,-2.28,9.89
-1.92,-9.63,0.20,9.82,-9.63,0.09,-2.24,9.88
-1.87,-9.62,0.20,9.80,-9.61,0.08,-2.26,9.87
-1.87,-9.63,0.19,9.81,-9.62,0.10,-2.24,9.88
-1.87,-9.61,0.20,9.79,-9.58,0.08,-2.24,9.84
-1.92,-9.64,0.17,9.83,-9.61,0.09,-2.24,9.87
-1.90,-9.65,0.17,9.84,-9.62,0.12,-2.24,9.88
-1.90,-9.65,0.17,9.84,-9.61,0.11,-2.25,9.87
-1.90,-9.65,0.15,9.83,-9.62,0.10,-2.24,9.87
-1.89,-9.67,0.16,9.86,-9.63,0.08,-2.26,9.89
-1.93,-9.65,0.16,9.84,-9.60,0.10,-2.26,9.86
-1.92,-9.65,0.14,9.84,-9.62,0.11,-2.30,9.89
-1.90,-9.63,0.17,9.82,-9.59,0.11,-2.30,9.86
-1.89,-9.63,0.17,9.82,-9.62,0.09,-2.34,9.90
-1.87,-9.64,0.24,9.82,-9.59,0.11,-2.31,9.86
-1.85,-9.62,0.24,9.80,-9.58,0.11,-2.28,9.85
-1.88,-9.60,0.22,9.79,-9.60,0.06,-2.28,9.87
-1.88,-9.66,0.21,9.85,-9.57,0.06,-2.28,9.84
-1.87,-9.61,0.19,9.80,-9.58,0.08,-2.26,9.84
-1.89,-9.64,0.19,9.82,-9.58,0.12,-2.28,9.85
-1.91,-9.61,0.19,9.80,-9.59,0.08,-2.29,9.86
-1.85,-9.63,0.13,9.81,-9.61,0.08,-2.27,9.88
-1.85,-9.64,0.14,9.82,-9.58,0.11,-2.27,9.85
-1.95,-9.70,0.21,9.90,-9.63,0.14,-2.36,9.91
-1.94,-9.68,0.37,9.88,-9.59,0.11,-2.28,9.86
-1.95,-9.60,0.33,9.80,-9.55,0.11,-2.22,9.81
-1.86,-9.54,0.05,9.72,-9.64,0.13,-2.45,9.95
-1.88,-9.68,0.17,9.86,-9.56,0.10,-2.16,9.80
-1.85,-9.60,0.18,9.78,-9.59,0.10,-2.27,9.85
-1.94,-9.64,0.31,9.84,-9.62,0.11,-2.43,9.92
-1.94,-9.64,0.34,9.84,-9.61,0.11,-2.33,9.88
-1.89,-9.59,0.22,9.77,-9.61,0.11,-2.34,9.89
-1.89,-9.60,0.17,9.78,-9.55,0.11,-2.28,9.82
-1.94,-9.62,0.14,9.81,-9.60,0.13,-2.31,9.88
-1.90,-9.64,0.17,9.83,-9.61,0.13,-2.31,9.88
-1.87,-9.66,0.18,9.84,-9.66,0.14,-2.32,9.94
-1.90,-9.69,0.15,9.87,-9.67,0.12,-2.29,9.94
-1.93,-9.84,0.60,10.05,-9.68,0.10,-2.30,9.95
-1.89,-9.67,0.23,9.85,-9.64,0.11,-2.31,9.92
-1.90,-9.70,0.36,9.89,-9.55,0.14,-2.35,9.83
-1.90,-9.63,0.33,9.82,-9.58,0.10,-2.29,9.85
-1.91,-9.58,0.22,9.77,-9.53,0.13,-2.26,9.79
-1.93,-9.61,0.37,9.81,-9.55,0.14,-2.30,9.83
-1.88,-9.60,0.22,9.78,-9.56,0.11,-2.30,9.83
-1.87,-9.60,0.28,9.78,-9.58,0.09,-2.26,9.85
-1.89,-9.59,0.22,9.77,-9.59,0.12,-2.27,9.85
-1.91,-9.57,0.24,9.76,-9.56,0.14,-2.27,9.83
-1.91,-9.59,0.24,9.78,-9.59,0.10,-2.29,9.86
-1.92,-9.68,0.21,9.87,-9.56,0.09,-2.30,9.83
-1.91,-9.61,0.22,9.80,-9.59,0.12,-2.29,9.86
-1.94,-9.71,0.23,9.90,-9.59,0.14,-2.28,9.85
-1.87,-9.64,0.25,9.82,-9.60,0.13,-2.29,9.87
-1.88,-9.65,0.25,9.84,-9.56,0.15,-2.23,9.81
-1.92,-9.62,0.13,9.81,-9.63,0.13,-2.33,9.91
-1.94,-9.69,0.20,9.88,-9.59,0.08,-2.33,9.87
-1.87,-9.69,0.34,9.87,-9.65,0.12,-2.29,9.91
-1.84,-9.58,0.13,9.75,-9.55,0.07,-2.31,9.83
-1.88,-9.61,0.26,9.80,-9.55,0.11,-2.33,9.83
-1.87,-9.56,0.21,9.75,-9.57,0.12,-2.34,9.86
-1.89,-9.58,0.20,9.77,-9.59,0.16,-2.31,9.86
-1.85,-9.59,0.25,9.77,-9.59,0.14,-2.33,9.87
-1.89,-9.64,0.25,9.83,-9.57,0.12,-2.31,9.85
-1.90,-9.63,0.23,9.82,-9.61,0.13,-2.36,9.89
-1.89,-9.64,0.21,9.82,-9.58,0.11,-2.37,9.87
-1.90,-9.66,0.26,9.84,-9.58,0.09,-2.37,9.87
-1.88,-9.58,0.30,9.77,-9.56,0.10,-2.35,9.85
-1.89,-9.61,0.27,9.80,-9.55,0.11,-2.34,9.83
-1.90,-9.63,0.17,9.82,-9.57,0.11,-2.36,9.86
-1.88,-9.59,0.33,9.78,-9.59,0.08,-2.37,9.88
-1.91,-9.62,0.20,9.81,-9.57,0.12,-2.34,9.85
-1.92,-9.64,0.30,9.83,-9.58,0.11,-2.37,9.87
-1.90,-9.61,0.29,9.80,-9.56,0.10,-2.34,9.84
-1.94,-9.63,0.24,9.83,-9.58,0.10,-2.37,9.87
-1.93,-9.63,0.24,9.82,-9.58,0.11,-2.37,9.87
-1.94,-9.61,0.23,9.81,-9.59,0.13,-2.37,9.88
-1.93,-9.65,0.38,9.85,-9.60,0.11,-2.40,9.89
-1.88,-9.60,0.18,9.78,-9.58,0.14,-2.38,9.87
-1.89,-9.63,0.25,9.82,-9.55,0.11,-2.42,9.85
-1.90,-9.62,0.24,9.81,-9.57,0.11,-2.41,9.87
-1.87,-9.57,0.21,9.76,-9.52,0.09,-2.42,9.82
-1.89,-9.63,0.30,9.82,-9.57,0.08,-2.39,9.86
-1.86,-9.61,0.24,9.79,-9.56,0.08,-2.38,9.86
-1.90,-9.63,0.25,9.82,-9.57,0.08,-2.36,9.86
-1.92,-9.63,0.24,9.83,-9.56,0.06,-2.37,9.85
-1.92,-9.61,0.26,9.80,-9.60,0.08,-2.37,9.89
-1.87,-9.64,0.26,9.82,-9.61,0.09,-2.40,9.90
-1.93,-9.62,0.30,9.82,-9.58,0.09,-2.39,9.87
-1.92,-9.63,0.31,9.82,-9.57,0.11,-2.42,9.87
-1.91,-9.64,0.45,9.84,-9.57,0.10,-2.40,9.87
-1.92,-9.56,0.11,9.75,-9.55,0.09,-2.37,9.84
-1.90,-9.57,0.19,9.76,-9.54,0.12,-2.43,9.85
-1.91,-9.61,0.40,9.81,-9.50,0.11,-2.36,9.79
-1.88,-9.58,0.26,9.77,-9.55,0.12,-2.36,9.84
-1.87,-9.60,0.25,9.79,-9.54,0.11,-2.35,9.83
-1.91,-9.62,0.23,9.81,-9.56,0.08,-2.36,9.85
-1.87,-9.64,0.23,9.82,-9.60,0.09,-2.38,9.89
-1.90,-9.61,0.27,9.80,-9.60,0.09,-2.40,9.89
-1.87,-9.63,0.23,9.82,-9.56,0.10,-2.39,9.86
-1.88,-9.61,0.22,9.80,-9.55,0.13,-2.40,9.85
-1.91,-9.68,0.23,9.87,-9.54,0.12,-2.42,9.84
-1.94,-9.63,0.33,9.83,-9.57,0.11,-2.48,9.89
-1.90,-9.61,0.40,9.80,-9.48,0.06,-2.34,9.76
-1.88,-9.55,0.25,9.74,-9.53,0.09,-2.45,9.84
-1.87,-9.59,0.26,9.77,-9.52,0.08,-2.44,9.83
-1.82,-9.60,0.23,9.78,-9.56,0.08,-2.37,9.85
-1.82,-9.58,0.21,9.76,-9.57,0.09,-2.45,9.88
-1.89,-9.63,0.28,9.82,-9.53,0.06,-2.47,9.85
-1.94,-9.58,0.36,9.79,-9.53,0.11,-2.38,9.82
-1.98,-9.55,0.25,9.75,-9.55,0.17,-2.33,9.83
-1.94,-9.58,0.17,9.77,-9.52,0.12,-2.40,9.82
-1.95,-9.65,0.16,9.85,-9.57,0.13,-2.37,9.86
-1.91,-9.70,0.24,9.89,-9.63,0.06,-2.34,9.91
-1.83,-9.69,0.27,9.87,-9.67,0.09,-2.37,9.96
-1.86,-9.68,0.24,9.86,-9.63,0.08,-2.36,9.91
-1.88,-9.68,0.28,9.87,-9.62,0.09,-2.38,9.91
-1.90,-9.63,0.28,9.82,-9.58,0.09,-2.39,9.87
-1.94,-9.61,0.29,9.80,-9.57,0.11,-2.40,9.87
-1.92,-9.59,0.27,9.79,-9.54,0.10,-2.36,9.83
-1.92,-9.59,0.22,9.78,-9.56,0.08,-2.34,9.85
-1.88,-9.57,0.21,9.76,-9.52,0.10,-2.41,9.82
-1.91,-9.57,0.20,9.76,-9.54,0.09,-2.35,9.83
-1.85,-9.58,0.21,9.76,-9.52,0.10,-2.38,9.81
-1.88,-9.59,0.24,9.78,-9.52,0.08,-2.38,9.81
-1.89,-9.60,0.25,9.79,-9.53,0.09,-2.39,9.82
-1.89,-9.59,0.25,9.77,-9.57,0.08,-2.41,9.87
-1.92,-9.58,0.27,9.77,-9.57,0.10,-2.37,9.86
-1.95,-9.65,0.19,9.85,-9.63,0.11,-2.39,9.93
-1.84,-9.68,0.20,9.86,-9.62,0.10,-2.30,9.89
-1.93,-9.66,0.21,9.85,-9.59,0.10,-2.34,9.87
-1.91,-9.69,0.29,9.89,-9.63,0.09,-2.48,9.95
-1.91,-9.66,0.31,9.85,-9.60,0.08,-2.30,9.87
-1.90,-9.62,0.22,9.81,-9.60,0.09,-2.38,9.89
-1.92,-9.63,0.24,9.82,-9.54,0.10,-2.38,9.84
-1.93,-9.62,0.32,9.82,-9.57,0.09,-2.40,9.86
-1.89,-9.60,0.23,9.79,-9.55,0.08,-2.38,9.84
-1.86,-9.57,0.21,9.75,-9.55,0.09,-2.34,9.83
-1.87,-9.66,0.13,9.84,-9.57,0.11,-2.38,9.86
-1.88,-9.64,0.17,9.82,-9.60,0.10,-2.38,9.89
-1.88,-9.61,0.15,9.80,-9.57,0.08,-2.41,9.87
-1.89,-9.57,0.21,9.76,-9.52,0.11,-2.42,9.82
-1.91,-9.56,0.20,9.75,-9.57,0.11,-2.42,9.87
-1.91,-9.60,0.23,9.79,-9.53,0.08,-2.39,9.83
-1.92,-9.61,0.36,9.81,-9.57,0.10,-2.40,9.86
-1.90,-9.61,0.21,9.80,-9.56,0.10,-2.37,9.85
-1.91,-9.62,0.14,9.81,-9.59,0.09,-2.37,9.88
-1.91,-9.61,0.20,9.80,-9.58,0.11,-2.33,9.86
-1.93,-9.62,0.20,9.82,-9.56,0.07,-2.37,9.84
-1.90,-9.61,0.24,9.80,-9.60,0.10,-2.37,9.88
-1.91,-9.64,0.18,9.83,-9.58,0.09,-2.38,9.87
-1.93,-9.64,0.23,9.84,-9.58,0.09,-2.38,9.87
-1.93,-9.60,0.24,9.80,-9.57,0.07,-2.40,9.86
-1.90,-9.60,0.23,9.79,-9.59,0.09,-2.39,9.88
-1.88,-9.55,0.22,9.74,-9.53,0.09,-2.38,9.82
-1.88,-9.63,0.31,9.82,-9.54,0.10,-2.39,9.83
-1.88,-9.60,0.12,9.78,-9.54,0.08,-2.40,9.84
-1.88,-9.60,0.23,9.79,-9.55,0.11,-2.38,9.84
-1.89,-9.61,0.26,9.80,-9.56,0.08,-2.37,9.85
-1.91,-9.63,0.29,9.82,-9.61,0.10,-2.36,9.90
-1.93,-9.64,0.21,9.84,-9.57,0.09,-2.34,9.85
-1.88,-9.64,0.20,9.82,-9.57,0.08,-2.37,9.86
-1.92,-9.67,0.21,9.86,-9.57,0.09,-2.34,9.86
-1.89,-9.63,0.28,9.81,-9.62,0.08,-2.34,9.90
-1.91,-9.60,0.24,9.79,-9.59,0.12,-2.31,9.87
-1.91,-9.63,0.24,9.82,-9.59,0.11,-2.33,9.87
-1.92,-9.61,0.23,9.80,-9.60,0.10,-2.35,9.88
-1.92,-9.60,0.24,9.79,-9.60,0.09,-2.35,9.88
-1.92,-9.65,0.27,9.84,-9.58,0.10,-2.35,9.86
-1.89,-9.62,0.17,9.80,-9.56,0.10,-2.35,9.85
-1.86,-9.61,0.16,9.79,-9.54,0.11,-2.36,9.83
-1.95,-9.67,0.25,9.87,-9.53,0.10,-2.42,9.84
-1.95,-9.68,0.47,9.89,-9.59,0.12,-2.47,9.90
-1.93,-9.58,0.33,9.78,-9.51,0.09,-2.30,9.79
-1.86,-9.51,0.17,9.70,-9.54,0.10,-2.44,9.85
-1.85,-9.60,0.20,9.78,-9.57,0.10,-2.38,9.87
-1.84,-9.59,0.34,9.77,-9.60,0.10,-2.29,9.87
-1.85,-9.65,0.21,9.82,-9.60,0.08,-2.40,9.90
-1.97,-9.64,0.22,9.85,-9.53,0.07,-2.44,9.84
-1.95,-9.58,0.30,9.79,-9.53,0.12,-2.32,9.81
-1.93,-9.57,0.23,9.76,-9.56,0.11,-2.34,9.84
-1.93,-9.59,0.16,9.79,-9.61,0.12,-2.32,9.88
-1.90,-9.66,0.16,9.84,-9.59,0.11,-2.34,9.88
-1.90,-9.69,0.16,9.88,-9.60,0.12,-2.31,9.87
-1.87,-9.66,0.18,9.84,-9.66,0.09,-2.33,9.93
-1.86,-9.68,0.24,9.86,-9.65,0.11,-2.33,9.92
-1.89,-9.65,0.28,9.84,-9.61,0.10,-2.35,9.90
-1.93,-9.64,0.26,9.83,-9.58,0.12,-2.33,9.86
-1.92,-9.60,0.24,9.79,-9.55,0.13,-2.32,9.83
-1.93,-9.60,0.24,9.80,-9.53,0.12,-2.30,9.81
-1.91,-9.61,0.22,9.80,-9.54,0.08,-2.32,9.82
-1.90,-9.57,0.19,9.76,-9.56,0.08,-2.31,9.83
-1.88,-9.48,0.29,9.67,-9.55,0.12,-2.29,9.82
-1.86,-9.58,0.41,9.77,-9.57,0.10,-2.29,9.84
-1.87,-9.65,0.28,9.83,-9.59,0.09,-2.29,9.86
-1.90,-9.62,0.24,9.81,-9.54,0.08,-2.30,9.81
-1.89,-9.58,0.19,9.77,-9.59,0.10,-2.34,9.87
-1.90,-9.65,0.23,9.84,-9.56,0.10,-2.24,9.82
-1.91,-9.65,0.24,9.84,-9.63,0.13,-2.34,9.91
-1.92,-9.64,0.14,9.83,-9.64,0.13,-2.26,9.90
-1.84,-9.64,0.22,9.82,-9.63,0.09,-2.29,9.89
-1.93,-9.64,0.13,9.84,-9.60,0.12,-2.29,9.87
-1.94,-9.68,0.28,9.88,-9.63,0.10,-2.42,9.93
-1.91,-9.65,0.30,9.84,-9.58,0.10,-2.22,9.83
-1.90,-9.63,0.28,9.82,-9.59,0.07,-2.33,9.87
-1.89,-9.58,0.27,9.77,-9.53,0.09,-2.35,9.81
-1.91,-9.53,0.17,9.72,-9.54,0.08,-2.36,9.82
-1.91,-9.63,0.08,9.81,-9.55,0.14,-2.30,9.82
-1.89,-9.62,0.18,9.81,-9.60,0.12,-2.27,9.86
-1.84,-9.62,0.16,9.79,-9.61,0.11,-2.29,9.88
-1.86,-9.66,0.16,9.84,-9.60,0.08,-2.29,9.87
-1.89,-9.66,0.24,9.85,-9.57,0.09,-2.32,9.85
-1.89,-9.62,0.23,9.81,-9.62,0.09,-2.32,9.89
-1.91,-9.64,0.21,9.83,-9.59,0.11,-2.32,9.86
-1.92,-9.65,0.26,9.84,-9.60,0.10,-2.32,9.88
-1.94,-9.63,0.22,9.83,-9.59,0.12,-2.33,9.87
-1.91,-9.61,0.20,9.81,-9.60,0.10,-2.31,9.87
-1.86,-9.60,0.22,9.78,-9.57,0.10,-2.30,9.84
-1.88,-9.59,0.22,9.77,-9.59,0.10,-2.29,9.86
-1.92,-9.63,0.21,9.83,-9.60,0.10,-2.26,9.86
-1.88,-9.62,0.20,9.81,-9.57,0.10,-2.28,9.84
-1.91,-9.61,0.24,9.80,-9.61,0.09,-2.31,9.88
-1.90,-9.66,0.12,9.85,-9.59,0.08,-2.33,9.87
-1.90,-9.65,0.22,9.84,-9.62,0.11,-2.29,9.89
-1.90,-9.65,0.17,9.84,-9.58,0.11,-2.29,9.85
-1.89,-9.62,0.22,9.81,-9.59,0.11,-2.33,9.87
-1.86,-9.62,0.23,9.80,-9.57,0.12,-2.29,9.84
-1.89,-9.61,0.21,9.79,-9.58,0.12,-2.31,9.85
-1.89,-9.59,0.21,9.78,-9.57,0.11,-2.31,9.85
-1.89,-9.61,0.20,9.80,-9.59,0.10,-2.30,9.86
-1.89,-9.60,0.19,9.79,-9.58,0.09,-2.29,9.85
-1.88,-9.63,0.22,9.81,-9.61,0.09,-2.28,9.88
-1.88,-9.50,0.36,9.70,-9.60,0.08,-2.29,9.86
-1.91,-9.66,0.27,9.85,-9.59,0.10,-2.28,9.86
-1.92,-9.61,0.24,9.81,-9.61,0.09,-2.28,9.88
-1.90,-9.63,0.22,9.82,-9.57,0.12,-2.26,9.84
-1.92,-9.59,0.22,9.78,-9.60,0.11,-2.26,9.86
-1.88,-9.57,0.18,9.75,-9.58,0.09,-2.30,9.85
-1.90,-9.61,0.17,9.80,-9.57,0.10,-2.29,9.84
-1.89,-9.66,0.17,9.84,-9.59,0.12,-2.29,9.86
-1.87,-9.60,0.26,9.79,-9.58,0.11,-2.29,9.85
-1.83,-9.60,0.16,9.77,-9.60,0.09,-2.29,9.87
-1.85,-9.55,0.16,9.73,-9.60,0.11,-2.29,9.87
-1.97,-9.67,0.40,9.88,-9.63,0.10,-2.38,9.92
-1.93,-9.64,0.34,9.84,-9.59,0.09,-2.18,9.83
-1.90,-9.50,0.17,9.68,-9.61,0.11,-2.36,9.90
-1.78,-9.61,0.14,9.77,-9.63,0.07,-2.32,9.91
-1.86,-9.70,0.17,9.88,-9.54,0.06,-2.18,9.79
-1.90,-9.67,0.20,9.86,-9.63,0.10,-2.33,9.91
-1.91,-9.67,0.22,9.86,-9.59,0.10,-2.33,9.87
-1.92,-9.62,0.27,9.82,-9.57,0.11,-2.28,9.84
-1.90,-9.58,0.26,9.77,-9.55,0.09,-2.27,9.81
-1.91,-9.56,0.19,9.75,-9.55,0.11,-2.31,9.83
-1.92,-9.59,0.12,9.78,-9.52,0.09,-2.32,9.80
-1.92,-9.65,0.19,9.84,-9.57,0.14,-2.28,9.83
-1.90,-9.65,0.16,9.83,-9.60,0.14,-2.29,9.87
-1.86,-9.67,0.20,9.85,-9.64,0.10,-2.28,9.91
-1.87,-9.70,0.26,9.88,-9.65,0.10,-2.25,9.91
-1.89,-9.65,0.21,9.84,-9.62,0.09,-2.26,9.88
-1.89,-9.63,0.22,9.82,-9.62,0.10,-2.25,9.88
-1.93,-9.63,0.22,9.82,-9.58,0.08,-2.23,9.84
-1.91,-9.62,0.19,9.80,-9.60,0.12,-2.22,9.85
-1.91,-9.62,0.18,9.81,-9.59,0.10,-2.22,9.84
-1.88,-9.61,0.19,9.80,-9.59,0.09,-2.25,9.85
-1.87,-9.63,0.18,9.81,-9.60,0.06,-2.23,9.85
-1.86,-9.63,0.20,9.81,-9.59,0.04,-2.27,9.86
-1.85,-9.60,0.23,9.78,-9.60,0.07,-2.27,9.87
-1.88,-9.60,0.18,9.79,-9.59,0.08,-2.26,9.85
-1.88,-9.62,0.19,9.80,-9.58,0.08,-2.25,9.84
-1.89,-9.62,0.17,9.80,-9.60,0.07,-2.24,9.86
-1.89,-9.55,-0.05,9.73,-9.62,0.10,-2.28,9.89
-1.90,-9.65,0.24,9.84,-9.60,0.11,-2.22,9.85
-1.89,-9.68,0.22,9.87,-9.62,0.10,-2.24,9.88
-1.93,-9.65,0.20,9.84,-9.59,0.13,-2.23,9.85
-1.92,-9.69,0.26,9.88,-9.64,0.08,-2.29,9.91
-1.87,-9.63,0.25,9.81,-9.62,0.08,-2.22,9.87
-1.85,-9.59,0.21,9.77,-9.59,0.07,-2.25,9.85
-1.94,-9.59,0.18,9.79,-9.58,0.09,-2.26,9.85
-1.91,-9.60,0.22,9.79,-9.56,0.09,-2.26,9.82
-1.90,-9.57,0.20,9.76,-9.59,0.11,-2.33,9.87
-1.84,-9.61,0.20,9.78,-9.58,0.12,-2.25,9.84
-1.80,-9.59,0.17,9.76,-9.54,0.09,-2.24,9.80
-1.85,-9.61,0.12,9.79,-9.58,0.11,-2.23,9.83
-1.85,-9.69,-0.10,9.87,-9.64,0.11,-2.33,9.91
-1.89,-9.70,0.09,9.89,-9.60,0.11,-2.22,9.86
-1.90,-9.69,0.20,9.88,-9.66,0.11,-2.27,9.92
-1.91,-9.66,0.20,9.85,-9.60,0.08,-2.27,9.87
-1.93,-9.65,0.21,9.84,-9.64,0.09,-2.25,9.90
-1.90,-9.61,0.20,9.79,-9.57,0.10,-2.27,9.84
-1.88,-9.60,0.18,9.78,-9.60,0.10,-2.29,9.87
-1.88,-9.61,0.19,9.80,-9.59,0.09,-2.26,9.85
-1.83,-9.62,0.19,9.80,-9.59,0.06,-2.28,9.86
-1.88,-9.62,0.20,9.80,-9.59,0.07,-2.26,9.86
-1.85,-9.63,0.22,9.81,-9.61,0.08,-2.24,9.87
-1.89,-9.61,0.20,9.80,-9.58,0.11,-2.24,9.84
-1.88,-9.65,0.19,9.84,-9.62,0.09,-2.26,9.88
-1.88,-9.63,0.19,9.81,-9.60,0.09,-2.27,9.86
-1.88,-9.64,0.19,9.83,-9.58,0.12,-2.24,9.84
-1.90,-9.64,0.19,9.82,-9.59,0.10,-2.27,9.85
-1.90,-9.62,0.20,9.80,-9.58,0.10,-2.27,9.85
-1.87,-9.60,0.18,9.78,-9.61,0.11,-2.25,9.87
-1.90,-9.59,0.20,9.78,-9.57,0.11,-2.26,9.83
-1.89,-9.61,0.22,9.80,-9.60,0.09,-2.25,9.86
-1.89,-9.63,0.19,9.81,-9.60,0.09,-2.24,9.86
-1.87,-9.63,0.21,9.82,-9.62,0.11,-2.25,9.88
-1.91,-9.62,0.20,9.81,-9.59,0.09,-2.26,9.85
-1.89,-9.64,0.19,9.82,-9.60,0.11,-2.27,9.86
-1.89,-9.62,0.19,9.80,-9.62,0.08,-2.26,9.88
-1.88,-9.66,0.20,9.84,-9.63,0.10,-2.24,9.88
-1.89,-9.65,0.17,9.83,-9.59,0.13,-2.28,9.85
-1.88,-9.62,0.16,9.81,-9.60,0.12,-2.26,9.86
-1.88,-9.62,0.17,9.81,-9.59,0.09,-2.28,9.86
-1.88,-9.67,0.14,9.85,-9.59,0.11,-2.24,9.85
-1.94,-9.63,0.20,9.83,-9.59,0.09,-2.24,9.85
-1.91,-9.62,0.26,9.81,-9.58,0.09,-2.26,9.85
-1.92,-9.64,0.19,9.83,-9.60,0.09,-2.26,9.86
-1.90,-9.60,0.21,9.79,-9.60,0.08,-2.26,9.86
-1.91,-9.64,0.21,9.83,-9.62,0.07,-2.25,9.88
-1.87,-9.61,0.20,9.80,-9.60,0.11,-2.28,9.87
-1.83,-9.60,0.13,9.77,-9.60,0.12,-2.26,9.86
-1.92,-9.68,0.20,9.87,-9.62,0.12,-2.29,9.89
-1.92,-9.67,0.37,9.87,-9.65,0.13,-2.32,9.93
-1.89,-9.60,0.25,9.78,-9.60,0.11,-2.18,9.84
-1.87,-9.49,0.14,9.67,-9.60,0.11,-2.42,9.90
-1.79,-9.67,0.15,9.84,-9.57,0.09,-2.19,9.82
-1.83,-9.64,0.12,9.81,-9.58,0.08,-2.18,9.82
-1.87,-9.64,0.18,9.83,-9.62,0.10,-2.34,9.90
-1.92,-9.65,0.26,9.84,-9.57,0.12,-2.29,9.85
-1.93,-9.61,0.28,9.81,-9.56,0.10,-2.27,9.83
-1.86,-9.54,0.19,9.72,-9.56,0.07,-2.25,9.83
-1.90,-9.60,0.15,9.79,-9.56,0.09,-2.27,9.83
-1.92,-9.63,0.15,9.82,-9.59,0.12,-2.23,9.85
-1.90,-9.65,0.16,9.84,-9.64,0.14,-2.26,9.90
-1.87,-9.65,0.14,9.83,-9.67,0.13,-2.25,9.93
-1.83,-9.71,0.16,9.88,-9.68,0.08,-2.23,9.93
-1.90,-9.70,0.21,9.88,-9.65,0.11,-2.24,9.91
-1.90,-9.69,0.24,9.87,-9.64,0.11,-2.29,9.90
-1.91,-9.65,0.24,9.84,-9.58,0.09,-2.18,9.82
-1.93,-9.65,0.21,9.84,-9.60,0.10,-2.26,9.87
-1.91,-9.63,0.20,9.82,-9.59,0.10,-2.22,9.84
-1.89,-9.61,0.17,9.80,-9.60,0.09,-2.24,9.86
-1.87,-9.59,0.22,9.78,-9.58,0.09,-2.22,9.83
-1.88,-9.58,0.21,9.77,-9.62,0.08,-2.28,9.89
-1.88,-9.57,0.19,9.76,-9.59,0.10,-2.28,9.85
-1.88,-9.58,0.21,9.76,-9.56,0.07,-2.31,9.83
-1.89,-9.60,0.20,9.79,-9.59,0.07,-2.31,9.87
-1.89,-9.64,0.18,9.82,-9.59,0.11,-2.31,9.86
-1.91,-9.62,0.18,9.81,-9.55,0.10,-2.29,9.82
-1.91,-9.63,0.19,9.81,-9.60,0.10,-2.29,9.86
-1.87,-9.66,0.22,9.84,-9.62,0.11,-2.28,9.89
-1.88,-9.65,0.20,9.83,-9.59,0.09,-2.27,9.85
-1.94,-9.60,0.27,9.80,-9.62,0.11,-2.32,9.90
-1.90,-9.68,0.36,9.87,-9.63,0.07,-2.32,9.90
-1.86,-9.62,0.38,9.81,-9.62,0.09,-2.28,9.89
-1.87,-9.61,0.17,9.79,-9.59,0.07,-2.30,9.86
-1.92,-9.60,0.23,9.79,-9.55,0.09,-2.30,9.83
-1.92,-9.62,0.26,9.81,-9.60,0.14,-2.30,9.87
-1.91,-9.62,0.28,9.81,-9.58,0.13,-2.34,9.86
-1.88,-9.58,0.23,9.77,-9.57,0.10,-2.30,9.84
-1.87,-9.63,0.16,9.81,-9.59,0.08,-2.28,9.86
-1.87,-9.73,0.13,9.91,-9.60,0.09,-2.29,9.87
-1.86,-9.63,0.11,9.81,-9.61,0.11,-2.32,9.88
-1.86,-9.66,0.30,9.84,-9.59,0.10,-2.31,9.86
-1.93,-9.63,0.24,9.83,-9.58,0.10,-2.36,9.87
-1.90,-9.60,0.17,9.79,-9.57,0.07,-2.33,9.85
-1.89,-9.62,0.11,9.80,-9.58,0.09,-2.32,9.86
-1.91,-9.64,0.30,9.83,-9.58,0.09,-2.32,9.86
-1.86,-9.60,0.23,9.78,-9.59,0.10,-2.33,9.87
-1.90,-9.62,0.24,9.81,-9.61,0.08,-2.35,9.89
-1.88,-9.66,0.24,9.84,-9.58,0.10,-2.33,9.86
-1.88,-9.60,0.21,9.79,-9.58,0.08,-2.33,9.86
-1.89,-9.63,0.29,9.82,-9.60,0.09,-2.34,9.88
-1.86,-9.61,0.25,9.79,-9.59,0.10,-2.36,9.88
-1.92,-9.67,0.29,9.86,-9.59,0.10,-2.35,9.87
-1.88,-9.58,0.24,9.77,-9.58,0.09,-2.35,9.87
-1.88,-9.59,0.27,9.78,-9.57,0.10,-2.32,9.85
-1.90,-9.66,0.22,9.85,-9.56,0.07,-2.34,9.85
-1.90,-9.63,0.23,9.81,-9.55,0.09,-2.33,9.83
-1.90,-9.62,0.22,9.81,-9.55,0.04,-2.32,9.83
-1.89,-9.58,0.23,9.77,-9.55,0.09,-2.32,9.83
-1.91,-9.67,0.40,9.87,-9.56,0.07,-2.34,9.84
-1.88,-9.63,0.29,9.81,-9.61,0.06,-2.29,9.88
-1.84,-9.63,0.24,9.81,-9.58,0.07,-2.34,9.86
-1.88,-9.63,0.32,9.82,-9.58,0.09,-2.33,9.86
-1.88,-9.60,0.26,9.79,-9.59,0.09,-2.35,9.87
-1.89,-9.64,0.26,9.83,-9.57,0.07,-2.36,9.86
-1.89,-9.65,0.33,9.84,-9.55,0.12,-2.37,9.84
-1.91,-9.66,0.17,9.84,-9.55,0.09,-2.37,9.84
-1.88,-9.58,0.28,9.77,-9.54,0.11,-2.36,9.83
-1.88,-9.62,0.20,9.80,-9.59,0.08,-2.34,9.87
-1.94,-9.62,0.21,9.81,-9.56,0.09,-2.35,9.85
-1.92,-9.63,0.27,9.83,-9.58,0.08,-2.37,9.87
-1.91,-9.65,0.32,9.84,-9.58,0.08,-2.35,9.86
-1.92,-9.63,0.38,9.83,-9.57,0.07,-2.38,9.87
-1.90,-9.59,0.33,9.79,-9.57,0.09,-2.35,9.86
-1.88,-9.63,0.33,9.82,-9.60,0.11,-2.36,9.89
-1.90,-9.71,0.22,9.90,-9.64,0.10,-2.38,9.93
-1.92,-9.67,0.23,9.86,-9.64,0.12,-2.37,9.93
-1.91,-9.61,0.24,9.80,-9.61,0.13,-2.41,9.91
-1.89,-9.63,0.24,9.82,-9.59,0.11,-2.39,9.89
-1.96,-9.65,0.23,9.85,-9.58,0.12,-2.48,9.90
-1.90,-9.60,0.35,9.79,-9.55,0.12,-2.46,9.86
-1.87,-9.53,0.25,9.72,-9.52,0.10,-2.41,9.82
-1.86,-9.54,0.18,9.72,-9.56,0.09,-2.52,9.89
-1.88,-9.62,0.35,9.81,-9.47,0.06,-2.31,9.75
-1.81,-9.56,0.29,9.73,-9.54,0.07,-2.39,9.84
-1.92,-9.58,0.37,9.77,-9.53,0.06,-2.48,9.85
-1.92,-9.59,0.34,9.78,-9.54,0.08,-2.42,9.84
-1.96,-9.57,0.30,9.77,-9.57,0.13,-2.34,9.85
-1.96,-9.54,0.21,9.74,-9.53,0.13,-2.35,9.82
-1.96,-9.60,0.18,9.80,-9.59,0.14,-2.41,9.89
-1.90,-9.68,0.24,9.87,-9.62,0.13,-2.36,9.90
-1.84,-9.69,0.28,9.87,-9.66,0.11,-2.39,9.95
-1.87,-9.71,0.26,9.89,-9.66,0.08,-2.40,9.95
-1.87,-9.70,0.24,9.88,-9.59,0.07,-2.40,9.89
-1.92,-9.62,0.28,9.81,-9.59,0.08,-2.41,9.89
-1.96,-9.55,0.13,9.75,-9.52,0.11,-2.40,9.82
-1.97,-9.55,0.32,9.76,-9.49,0.11,-2.40,9.79
-1.92,-9.55,0.22,9.74,-9.53,0.11,-2.39,9.83
-1.93,-9.58,0.21,9.77,-9.54,0.12,-2.40,9.84
-1.88,-9.58,0.22,9.76,-9.55,0.08,-2.36,9.84
-1.89,-9.61,0.26,9.79,-9.56,0.09,-2.36,9.85
-1.86,-9.60,0.26,9.78,-9.56,0.09,-2.39,9.85
-1.87,-9.62,0.27,9.81,-9.54,0.10,-2.40,9.84
-1.91,-9.62,0.26,9.81,-9.58,0.12,-2.40,9.88
-1.91,-9.63,0.26,9.83,-9.55,0.10,-2.39,9.85
-1.94,-9.63,0.25,9.83,-9.57,0.14,-2.39,9.86
-1.95,-9.61,0.25,9.81,-9.58,0.14,-2.40,9.88
-1.86,-9.65,0.23,9.83,-9.62,0.11,-2.37,9.91
-1.91,-9.66,0.21,9.85,-9.55,0.09,-2.35,9.83
-1.93,-9.67,0.35,9.86,-9.62,0.10,-2.56,9.96
-1.90,-9.60,0.31,9.79,-9.53,0.07,-2.35,9.82
-1.87,-9.55,0.25,9.74,-9.57,0.11,-2.38,9.86
-1.91,-9.62,0.34,9.81,-9.53,0.08,-2.41,9.83
-1.93,-9.57,0.34,9.77,-9.55,0.08,-2.41,9.85
-1.91,-9.58,0.22,9.77,-9.54,0.09,-2.41,9.84
-1.90,-9.60,0.25,9.79,-9.53,0.10,-2.36,9.82
-1.87,-9.62,0.23,9.81,-9.58,0.11,-2.35,9.86
-1.87,-9.59,0.24,9.78,-9.53,0.09,-2.40,9.83
-1.89,-9.63,0.26,9.82,-9.54,0.10,-2.39,9.83
-1.91,-9.62,0.25,9.81,-9.57,0.09,-2.40,9.87
-1.90,-9.63,0.29,9.82,-9.57,0.09,-2.39,9.87
-1.89,-9.60,0.30,9.79,-9.57,0.08,-2.38,9.86
-1.92,-9.60,0.30,9.80,-9.55,0.09,-2.38,9.84
-1.89,-9.62,0.28,9.81,-9.57,0.09,-2.37,9.86
-1.91,-9.60,0.27,9.79,-9.57,0.07,-2.38,9.86
-1.89,-9.61,0.26,9.80,-9.56,0.09,-2.35,9.85
-1.92,-9.62,0.24,9.81,-9.58,0.09,-2.36,9.87
-1.93,-9.61,0.23,9.80,-9.59,0.06,-2.35,9.88
-1.94,-9.64,0.28,9.84,-9.60,0.06,-2.39,9.89
-1.89,-9.64,0.25,9.83,-9.58,0.08,-2.40,9.88
-1.95,-9.63,0.24,9.83,-9.58,0.10,-2.40,9.87
-1.90,-9.66,0.22,9.85,-9.57,0.08,-2.41,9.87
-1.89,-9.63,0.21,9.81,-9.54,0.09,-2.40,9.84
-1.88,-9.62,0.22,9.81,-9.56,0.10,-2.40,9.85
-1.90,-9.55,0.28,9.74,-9.53,0.09,-2.40,9.82
-1.88,-9.69,0.55,9.88,-9.57,0.06,-2.40,9.87
-1.91,-9.64,0.14,9.83,-9.59,0.06,-2.34,9.87
-1.87,-9.63,0.25,9.81,-9.57,0.09,-2.37,9.86
-1.89,-9.57,0.32,9.76,-9.59,0.04,-2.40,9.89
-1.90,-9.67,0.22,9.85,-9.60,0.06,-2.37,9.89
-1.89,-9.64,0.22,9.82,-9.59,0.06,-2.37,9.88
-1.90,-9.64,0.26,9.83,-9.59,0.06,-2.34,9.87
-1.87,-9.63,0.28,9.82,-9.57,0.06,-2.37,9.86
-1.90,-9.61,0.27,9.80,-9.56,0.08,-2.37,9.84
-1.88,-9.62,0.24,9.81,-9.58,0.08,-2.38,9.87
-1.93,-9.62,0.28,9.82,-9.55,0.09,-2.39,9.84
-1.91,-9.62,0.24,9.81,-9.58,0.09,-2.35,9.86
-1.88,-9.65,0.13,9.83,-9.59,0.11,-2.38,9.88
-1.90,-9.65,0.24,9.83,-9.58,0.09,-2.35,9.86
-1.85,-9.63,0.17,9.81,-9.56,0.10,-2.32,9.83
-1.87,-9.61,0.13,9.80,-9.57,0.11,-2.37,9.86
-1.96,-9.67,0.29,9.87,-9.59,0.14,-2.45,9.90
-1.92,-9.64,0.34,9.84,-9.54,0.07,-2.35,9.82
-1.89,-9.55,0.20,9.73,-9.50,0.10,-2.32,9.78
-1.84,-9.53,0.16,9.71,-9.55,0.09,-2.45,9.86
-1.87,-9.67,0.18,9.85,-9.55,0.07,-2.35,9.84
-1.82,-9.67,0.28,9.84,-9.62,0.08,-2.30,9.89
-1.92,-9.65,0.27,9.84,-9.59,0.07,-2.43,9.89
-1.94,-9.57,0.41,9.77,-9.51,0.07,-2.38,9.81
-1.90,-9.61,0.43,9.81,-9.56,0.12,-2.32,9.84
-1.93,-9.58,0.22,9.78,-9.57,0.12,-2.34,9.85
-1.93,-9.64,0.07,9.83,-9.62,0.11,-2.35,9.90
-1.93,-9.67,0.12,9.86,-9.60,0.09,-2.27,9.86
-1.88,-9.69,0.14,9.87,-9.63,0.11,-2.31,9.90
-1.84,-9.70,0.23,9.87,-9.64,0.10,-2.36,9.92
-1.85,-9.71,0.25,9.89,-9.63,0.09,-2.34,9.91
-1.87,-9.70,0.25,9.88,-9.62,0.09,-2.32,9.90
-1.89,-9.63,0.23,9.81,-9.61,0.07,-2.35,9.89
-1.93,-9.62,0.26,9.81,-9.56,0.09,-2.29,9.83
-1.88,-9.61,0.28,9.79,-9.54,0.11,-2.30,9.81
-1.90,-9.56,0.33,9.75,-9.55,0.10,-2.33,9.83
-1.89,-9.63,0.16,9.82,-9.58,0.10,-2.27,9.85
-1.88,-9.59,0.23,9.78,-9.57,0.10,-2.28,9.84
-1.84,-9.55,0.28,9.73,-9.59,0.09,-2.30,9.86
-1.87,-9.64,0.29,9.82,-9.55,0.09,-2.31,9.82
-1.90,-9.61,0.26,9.80,-9.59,0.09,-2.31,9.87
-1.92,-9.58,0.28,9.77,-9.58,0.09,-2.33,9.86
-1.94,-9.64,0.33,9.83,-9.61,0.11,-2.31,9.89
-1.93,-9.65,0.18,9.85,-9.61,0.12,-2.32,9.89
-1.93,-9.64,0.16,9.83,-9.62,0.13,-2.31,9.90
-1.82,-9.62,0.14,9.79,-9.60,0.09,-2.29,9.87
-1.92,-9.66,0.17,9.85,-9.64,0.11,-2.31,9.91
-1.91,-9.66,0.29,9.85,-9.61,0.09,-2.26,9.88
-1.88,-9.62,0.27,9.81,-9.64,0.11,-2.22,9.90
-1.93,-9.61,0.29,9.80,-9.58,0.03,-2.32,9.85
-1.90,-9.62,0.26,9.80,-9.58,0.08,-2.29,9.85
-1.90,-9.59,0.18,9.78,-9.56,0.09,-2.28,9.83
-1.90,-9.62,0.19,9.81,-9.56,0.11,-2.26,9.83
-1.87,-9.53,0.17,9.72,-9.56,0.11,-2.25,9.82
-1.86,-9.61,0.26,9.79,-9.54,0.07,-2.28,9.81
-1.85,-9.63,0.25,9.81,-9.56,0.06,-2.28,9.82
-1.87,-9.63,0.22,9.81,-9.58,0.09,-2.30,9.85
-1.90,-9.60,0.13,9.79,-9.60,0.11,-2.30,9.87
-1.90,-9.67,0.24,9.85,-9.58,0.11,-2.28,9.85
-1.90,-9.64,0.24,9.83,-9.61,0.10,-2.33,9.89
-1.91,-9.58,0.20,9.77,-9.60,0.11,-2.32,9.87
-1.90,-9.64,0.24,9.82,-9.60,0.10,-2.32,9.88
-1.90,-9.63,0.21,9.82,-9.59,0.11,-2.30,9.86
-1.88,-9.62,0.19,9.80,-9.62,0.11,-2.31,9.89
-1.90,-9.62,0.31,9.81,-9.61,0.11,-2.28,9.87
-1.91,-9.68,0.27,9.87,-9.61,0.10,-2.31,9.88
-1.91,-9.65,0.24,9.84,-9.62,0.09,-2.28,9.89
-1.89,-9.63,0.23,9.81,-9.61,0.08,-2.26,9.87
-1.90,-9.68,0.31,9.87,-9.60,0.10,-2.29,9.87
-1.89,-9.64,0.21,9.83,-9.61,0.11,-2.29,9.88
-1.87,-9.62,0.20,9.81,-9.60,0.09,-2.31,9.87
-1.87,-9.61,0.24,9.80,-9.60,0.08,-2.29,9.87
-1.87,-9.62,0.21,9.80,-9.58,0.09,-2.28,9.85
-1.87,-9.64,0.24,9.82,-9.59,0.08,-2.33,9.87
-1.88,-9.60,0.23,9.78,-9.57,0.09,-2.25,9.83
-1.86,-9.60,0.22,9.78,-9.58,0.06,-2.25,9.84
-1.87,-9.59,0.24,9.78,-9.59,0.09,-2.31,9.86
-1.88,-9.61,0.22,9.80,-9.60,0.10,-2.26,9.87
