Ax,Ay,Az,Amag
-2.39,-9.42,1.15,9.79
-2.40,-9.44,1.22,9.82
-2.39,-9.44,1.17,9.81
-2.41,-9.45,1.21,9.83
-2.43,-9.43,1.21,9.81
-2.40,-9.44,1.20,9.81
-2.41,-9.41,1.22,9.79
-2.41,-9.45,1.22,9.83
-2.41,-9.46,1.23,9.84
-2.40,-9.44,1.19,9.81
-2.37,-9.42,1.18,9.79
-2.39,-9.42,1.21,9.80
-2.39,-9.42,1.22,9.79
-2.43,-9.42,1.24,9.80
-2.42,-9.41,1.24,9.79
-2.43,-9.42,1.25,9.80
-2.45,-9.41,1.22,9.80
-2.43,-9.45,1.23,9.83
-2.44,-9.46,1.23,9.85
-2.41,-9.45,1.23,9.82
-2.40,-9.43,1.23,9.81
-2.40,-9.44,1.24,9.82
-2.41,-9.44,1.26,9.83
-2.41,-9.41,1.27,9.80
-2.41,-9.42,1.26,9.81
-2.40,-9.39,1.23,9.77
-2.42,-9.40,1.24,9.78
-2.44,-9.42,1.24,9.81
-2.45,-9.41,1.23,9.80
-2.41,-9.41,1.26,9.80
-2.44,-9.42,1.24,9.81
-2.43,-9.43,1.25,9.82
-2.40,-9.44,1.26,9.82
-2.43,-9.42,1.27,9.81
-2.42,-9.45,1.25,9.83
-2.42,-9.43,1.24,9.81
-2.40,-9.45,1.23,9.82
-2.43,-9.43,1.24,9.82
-2.41,-9.43,1.26,9.81
-2.41,-9.44,1.26,9.83
-2.42,-9.46,1.26,9.84
-2.45,-9.44,1.24,9.83
-2.43,-9.42,1.25,9.81
-2.42,-9.43,1.25,9.81
-2.43,-9.45,1.21,9.83
-2.41,-9.43,1.22,9.81
-2.43,-9.44,1.21,9.82
-2.47,-9.46,1.27,9.86
-2.49,-9.46,1.36,9.87
-2.49,-9.44,1.40,9.86
-2.35,-9.35,1.20,9.71
-2.36,-9.36,1.12,9.72
-2.37,-9.50,1.20,9.87
-2.38,-9.43,1.10,9.79
-2.39,-9.42,1.22,9.80
-2.45,-9.45,1.42,9.86
-2.43,-9.35,1.38,9.76
-2.44,-9.36,1.31,9.76
-2.40,-9.40,1.49,9.82
-2.53,-9.38,1.02,9.77
-2.41,-9.45,1.22,9.83
-2.47,-9.45,1.16,9.83
-2.44,-9.42,1.16,9.80
-2.42,-9.48,1.20,9.86
-2.44,-9.45,1.20,9.84
-2.45,-9.50,1.23,9.88
-2.46,-9.50,1.26,9.89
-2.45,-9.50,1.25,9.89
-2.44,-9.50,1.24,9.88
-2.41,-9.46,1.26,9.84
-2.43,-9.44,1.24,9.83
-2.43,-9.44,1.25,9.83
-2.44,-9.40,1.23,9.79
-2.38,-9.43,1.25,9.81
-2.40,-9.39,1.22,9.77
-2.39,-9.38,1.21,9.76
-2.38,-9.40,1.23,9.77
-2.39,-9.41,1.24,9.78
-2.41,-9.43,1.22,9.81
-2.46,-9.45,1.21,9.84
-2.45,-9.43,1.22,9.82
-2.46,-9.43,1.22,9.83
-2.43,-9.44,1.22,9.82
-2.44,-9.44,1.15,9.82
-2.44,-9.44,1.21,9.82
-2.45,-9.47,1.31,9.87
-2.45,-9.44,1.36,9.84
-2.40,-9.40,1.26,9.78
-2.44,-9.44,1.24,9.83
-2.45,-9.46,1.23,9.85
-2.42,-9.45,1.51,9.87
-2.48,-9.42,1.15,9.81
-2.42,-9.37,1.21,9.75
-2.43,-9.43,1.24,9.81
-2.41,-9.44,1.22,9.82
-2.43,-9.42,1.23,9.80
-2.41,-9.44,1.26,9.83
-2.43,-9.42,1.24,9.81
-2.43,-9.43,1.20,9.81
-2.44,-9.47,1.24,9.85
-2.42,-9.47,1.22,9.85
-2.44,-9.45,1.25,9.84
-2.41,-9.41,1.24,9.80
-2.44,-9.44,1.26,9.83
-2.45,-9.41,1.24,9.80
-2.41,-9.43,1.25,9.82
-2.43,-9.42,1.25,9.81
-2.43,-9.45,1.24,9.84
-2.44,-9.42,1.24,9.81
-2.42,-9.45,1.26,9.84
-2.42,-9.45,1.25,9.83
-2.43,-9.47,1.24,9.86
-2.41,-9.46,1.23,9.84
-2.43,-9.45,1.25,9.83
-2.43,-9.41,1.25,9.80
-2.44,-9.43,1.23,9.81
-2.41,-9.43,1.24,9.81
-2.42,-9.42,1.26,9.80
-2.44,-9.40,1.27,9.79
-2.41,-9.40,1.25,9.78
-2.41,-9.42,1.23,9.80
-2.41,-9.41,1.23,9.79
-2.43,-9.43,1.22,9.81
-2.45,-9.43,1.24,9.82
-2.44,-9.44,1.24,9.83
-2.44,-9.45,1.23,9.83
-2.42,-9.43,1.25,9.82
-2.44,-9.43,1.27,9.83
-2.44,-9.44,1.23,9.83
-2.46,-9.44,1.24,9.83
-2.44,-9.46,1.24,9.85
-2.41,-9.44,1.25,9.82
-2.41,-9.42,1.25,9.80
-2.40,-9.44,1.26,9.82
-2.42,-9.43,1.25,9.81
-2.41,-9.42,1.26,9.80
-2.39,-9.43,1.24,9.81
-2.44,-9.44,1.24,9.83
-2.40,-9.41,1.23,9.79
-2.39,-9.42,1.19,9.79
-2.38,-9.43,1.20,9.80
-2.40,-9.44,1.24,9.82
-2.46,-9.46,1.41,9.88
-2.48,-9.45,1.31,9.85
-2.40,-9.41,1.22,9.79
-2.33,-9.47,1.09,9.81
-2.38,-9.56,1.20,9.93
-2.34,-9.55,1.44,9.94
-2.40,-9.40,1.16,9.77
-2.47,-9.42,1.44,9.85
-2.46,-9.35,1.46,9.78
-2.43,-9.36,1.49,9.78
-2.44,-9.37,1.13,9.75
-2.49,-9.41,1.19,9.81
-2.44,-9.45,1.21,9.84
-2.43,-9.44,1.19,9.82
-2.40,-9.45,1.19,9.82
-2.44,-9.46,1.18,9.84
-2.45,-9.49,1.21,9.87
-2.44,-9.52,1.26,9.90
-2.44,-9.47,1.28,9.87
-2.50,-9.43,1.14,9.83
-2.43,-9.43,1.23,9.82
-2.46,-9.45,1.24,9.84
-2.42,-9.42,1.26,9.81
-2.42,-9.40,1.27,9.79
-2.42,-9.39,1.26,9.78
-2.43,-9.37,1.27,9.77
-2.43,-9.37,1.24,9.76
-2.42,-9.40,1.23,9.79
-2.43,-9.40,1.24,9.79
-2.46,-9.40,1.22,9.79
-2.41,-9.41,1.22,9.79
-2.46,-9.42,1.23,9.81
-2.40,-9.39,1.17,9.76
-2.42,-9.45,1.29,9.84
-2.43,-9.44,1.26,9.83
-2.44,-9.42,1.17,9.80
-2.42,-9.46,1.24,9.84
-2.44,-9.45,1.29,9.85
-2.45,-9.45,1.37,9.86
-2.41,-9.38,1.26,9.77
-2.44,-9.41,1.25,9.80
-2.41,-9.44,1.24,9.82
-2.38,-9.45,1.22,9.82
-2.36,-9.46,1.23,9.82
-2.36,-9.44,1.23,9.80
-2.35,-9.44,1.18,9.80
-2.40,-9.45,1.19,9.82
-2.42,-9.45,1.22,9.83
-2.46,-9.45,1.20,9.84
-2.43,-9.45,1.23,9.83
-2.53,-9.43,1.23,9.84
-2.53,-9.43,1.26,9.85
-2.51,-9.44,1.29,9.86
-2.54,-9.41,1.27,9.83
-2.58,-9.40,1.00,9.80
-2.44,-9.45,1.34,9.85
-2.48,-9.40,1.26,9.80
-2.46,-9.44,1.23,9.83
-2.46,-9.48,1.32,9.88
-2.43,-9.43,1.28,9.82
-2.43,-9.42,1.26,9.81
-2.41,-9.44,1.28,9.83
-2.42,-9.42,1.30,9.81
-2.39,-9.43,1.26,9.81
-2.35,-9.41,1.24,9.78
-2.38,-9.42,1.23,9.79
-2.34,-9.42,1.24,9.78
-2.33,-9.42,1.22,9.78
-2.34,-9.42,1.21,9.78
-2.34,-9.42,1.21,9.78
-2.35,-9.39,1.23,9.76
-2.40,-9.36,1.06,9.72
-2.31,-9.41,1.18,9.76
-2.37,-9.43,1.24,9.80
-2.35,-9.42,1.18,9.78
-2.36,-9.41,1.14,9.77
-2.35,-9.47,1.17,9.83
-2.40,-9.50,1.18,9.87
-2.42,-9.49,1.17,9.86
-2.48,-9.48,1.24,9.87
-2.48,-9.48,1.22,9.88
-2.53,-9.46,1.25,9.87
-2.53,-9.46,1.29,9.88
-2.50,-9.43,1.25,9.83
-2.46,-9.43,1.22,9.82
-2.40,-9.43,1.22,9.81
-2.41,-9.45,1.28,9.83
-2.41,-9.42,1.28,9.81
-2.43,-9.45,1.40,9.86
-2.47,-9.44,1.31,9.84
-2.37,-9.40,1.26,9.78
-2.36,-9.41,1.17,9.77
-2.40,-9.50,1.22,9.88
-2.43,-9.50,1.18,9.87
-2.43,-9.35,1.29,9.75
-2.40,-9.37,1.54,9.79
-2.41,-9.29,1.49,9.72
-2.43,-9.32,1.34,9.72
-2.42,-9.35,1.27,9.75
-2.43,-9.39,1.19,9.77
-2.44,-9.40,1.24,9.79
-2.46,-9.44,1.20,9.83
-2.44,-9.41,1.18,9.79
-2.49,-9.45,1.17,9.84
-2.52,-9.45,1.17,9.85
-2.48,-9.44,1.20,9.84
-2.49,-9.47,1.25,9.87
-2.44,-9.48,1.25,9.87
-2.44,-9.50,1.23,9.88
-2.45,-9.49,1.22,9.88
-2.45,-9.51,1.25,9.90
-2.46,-9.47,1.27,9.86
-2.45,-9.45,1.26,9.84
-2.46,-9.45,1.26,9.84
-2.48,-9.41,1.17,9.80
-2.49,-9.46,1.38,9.88
-2.46,-9.41,1.21,9.80
-2.44,-9.42,1.21,9.80
-2.46,-9.41,1.27,9.81
-2.42,-9.40,1.17,9.78
-2.42,-9.41,1.23,9.79
-2.43,-9.40,1.16,9.77
-2.42,-9.40,1.11,9.76
-2.42,-9.40,1.20,9.78
-2.43,-9.42,1.30,9.82
-2.45,-9.41,1.32,9.81
-2.43,-9.35,1.28,9.74
-2.41,-9.38,1.33,9.78
-2.40,-9.40,1.26,9.78
-2.40,-9.36,1.23,9.75
-2.40,-9.41,1.21,9.78
-2.39,-9.43,1.19,9.80
-2.38,-9.44,1.16,9.80
-2.39,-9.46,1.18,9.83
-2.41,-9.48,1.26,9.86
-2.40,-9.46,1.18,9.83
-2.41,-9.44,1.24,9.82
-2.43,-9.48,1.23,9.86
-2.41,-9.50,1.21,9.87
-2.41,-9.52,1.16,9.88
-2.39,-9.52,1.17,9.89
-2.34,-9.51,1.21,9.86
-2.35,-9.51,1.18,9.87
-2.35,-9.51,1.21,9.87
-2.35,-9.48,1.23,9.85
-2.36,-9.48,1.22,9.84
-2.39,-9.49,1.21,9.86
-2.41,-9.49,1.21,9.87
-2.39,-9.49,1.19,9.85
-2.40,-9.49,1.21,9.86
-2.38,-9.46,1.22,9.83
-2.34,-9.46,1.22,9.82
-2.33,-9.44,1.20,9.80
-2.35,-9.42,1.20,9.78
-2.33,-9.42,1.22,9.78
-2.34,-9.41,1.22,9.77
-2.33,-9.41,1.47,9.81
-2.42,-9.42,1.27,9.80
-2.37,-9.38,1.20,9.75
-2.41,-9.40,1.22,9.78
-2.41,-9.41,1.23,9.79
-2.42,-9.40,1.24,9.78
-2.39,-9.43,1.23,9.80
-2.43,-9.44,1.25,9.83
-2.42,-9.47,1.24,9.85
-2.44,-9.42,1.20,9.81
-2.47,-9.44,1.23,9.84
-2.49,-9.44,1.21,9.84
-2.51,-9.46,1.33,9.88
-2.52,-9.47,1.40,9.90
-2.50,-9.48,1.41,9.90
-2.46,-9.38,1.10,9.76
-2.34,-9.38,0.95,9.71
-2.35,-9.56,1.14,9.91
-2.32,-9.60,1.09,9.93
-2.32,-9.43,1.21,9.78
-2.36,-9.38,1.42,9.77
-2.41,-9.37,1.38,9.77
-2.46,-9.40,1.40,9.82
-2.47,-9.39,1.11,9.77
-2.43,-9.44,1.18,9.82
-2.43,-9.52,1.26,9.90
-2.39,-9.47,1.16,9.84
-2.40,-9.47,1.19,9.84
-2.43,-9.48,1.21,9.86
-2.48,-9.51,1.23,9.91
-2.47,-9.51,1.26,9.91
-2.47,-9.52,1.29,9.91
-2.48,-9.46,1.31,9.87
-2.46,-9.44,1.32,9.84
-2.42,-9.40,1.34,9.80
-2.38,-9.37,1.31,9.76
-2.37,-9.34,1.30,9.72
-2.34,-9.34,1.25,9.71
-2.32,-9.38,1.28,9.75
-2.28,-9.41,1.48,9.79
-2.34,-9.36,1.09,9.71
-2.41,-9.40,1.24,9.78
-2.41,-9.42,1.32,9.81
-2.46,-9.43,1.24,9.82
-2.47,-9.46,1.30,9.86
-2.44,-9.48,1.33,9.88
-2.40,-9.44,1.26,9.82
-2.38,-9.46,1.24,9.83
-2.42,-9.49,1.31,9.88
-2.41,-9.46,1.37,9.86
-2.43,-9.38,1.22,9.77
-2.42,-9.39,1.26,9.77
-2.42,-9.43,1.26,9.81
-2.43,-9.40,1.20,9.78
-2.45,-9.41,1.22,9.80
-2.44,-9.42,1.20,9.81
-2.42,-9.42,1.25,9.80
-2.38,-9.43,1.27,9.81
-2.37,-9.48,1.26,9.86
-2.34,-9.47,1.28,9.84
-2.33,-9.46,1.26,9.82
-2.37,-9.49,1.22,9.85
-2.37,-9.49,1.26,9.86
-2.40,-9.47,1.25,9.84
-2.38,-9.42,1.25,9.79
-2.41,-9.41,1.26,9.79
-2.42,-9.41,1.25,9.80
-2.43,-9.40,1.22,9.79
-2.41,-9.42,1.24,9.80
-2.43,-9.43,1.28,9.82
-2.41,-9.43,1.29,9.82
-2.42,-9.42,1.25,9.81
-2.43,-9.41,1.28,9.81
-2.42,-9.41,1.23,9.79
-2.40,-9.39,1.24,9.77
-2.42,-9.42,1.36,9.82
-2.39,-9.42,1.29,9.81
-2.40,-9.41,1.23,9.79
-2.38,-9.42,1.24,9.80
-2.38,-9.42,1.23,9.79
-2.41,-9.43,1.19,9.80
-2.37,-9.44,1.25,9.81
-2.38,-9.48,1.24,9.86
-2.36,-9.47,1.23,9.84
-2.38,-9.46,1.20,9.83
-2.41,-9.45,1.26,9.83
-2.42,-9.45,1.23,9.83
-2.41,-9.49,1.36,9.88
-2.41,-9.50,1.42,9.90
-2.42,-9.48,1.39,9.89
-2.31,-9.41,0.97,9.74
-2.31,-9.47,1.20,9.82
-2.28,-9.54,1.36,9.90
-2.25,-9.36,1.32,9.71
-2.34,-9.40,1.31,9.78
-2.42,-9.45,1.29,9.84
-2.39,-9.40,1.28,9.78
-2.35,-9.43,1.23,9.80
-2.31,-9.47,1.20,9.82
-2.33,-9.49,1.19,9.84
-2.27,-9.49,1.07,9.81
-2.31,-9.50,1.18,9.84
-2.36,-9.47,1.13,9.83
-2.38,-9.48,1.16,9.84
-2.42,-9.52,1.21,9.89
-2.43,-9.50,1.26,9.88
-2.43,-9.49,1.28,9.88
-2.39,-9.46,1.29,9.84
-2.38,-9.44,1.32,9.82
-2.39,-9.44,1.27,9.82
-2.36,-9.40,1.25,9.77
-2.34,-9.40,1.22,9.77
-2.35,-9.39,1.26,9.76
-2.34,-9.41,1.21,9.77
-2.39,-9.40,1.24,9.78
-2.37,-9.41,1.24,9.78
-2.39,-9.43,1.22,9.81
-2.36,-9.45,1.25,9.82
-2.37,-9.47,1.28,9.85
-2.33,-9.46,1.17,9.81
-2.31,-9.46,1.11,9.80
-2.31,-9.48,1.17,9.83
-2.38,-9.49,1.31,9.87
-2.35,-9.42,1.25,9.79
-2.40,-9.41,1.27,9.79
-2.40,-9.46,1.26,9.84
-2.42,-9.47,1.33,9.87
-2.37,-9.38,1.26,9.76
-2.35,-9.44,1.20,9.80
-2.36,-9.47,1.18,9.83
-2.37,-9.43,1.24,9.80
-2.36,-9.41,1.23,9.78
-2.36,-9.39,1.25,9.76
-2.33,-9.42,1.27,9.79
-2.36,-9.42,1.22,9.79
-2.41,-9.45,1.22,9.83
-2.41,-9.46,1.25,9.84
-2.37,-9.45,1.26,9.83
-2.38,-9.46,1.27,9.84
-2.35,-9.42,1.25,9.79
-2.32,-9.48,1.25,9.84
-2.33,-9.48,1.26,9.85
-2.37,-9.49,1.27,9.86
-2.35,-9.46,1.28,9.83
-2.35,-9.46,1.31,9.83
-2.36,-9.43,1.30,9.81
-2.37,-9.44,1.27,9.81
-2.38,-9.47,1.27,9.85
-2.35,-9.44,1.24,9.81
-2.36,-9.48,1.24,9.85
-2.34,-9.44,1.27,9.81
-2.39,-9.46,1.27,9.84
-2.38,-9.43,1.30,9.81
-2.36,-9.45,1.25,9.82
-2.35,-9.41,1.23,9.77
-2.32,-9.43,1.25,9.79
-2.35,-9.43,1.27,9.80
-2.36,-9.41,1.28,9.79
-2.37,-9.42,1.33,9.80
-2.42,-9.41,1.48,9.83
-2.43,-9.44,1.33,9.84
-2.37,-9.39,1.01,9.74
-2.29,-9.47,1.17,9.81
-2.23,-9.45,1.36,9.80
-2.24,-9.36,1.26,9.71
-2.36,-9.45,1.26,9.82
-2.41,-9.38,1.38,9.78
-2.40,-9.38,1.36,9.78
-2.45,-9.45,1.32,9.86
-2.44,-9.45,1.20,9.83
-2.41,-9.47,1.17,9.84
-2.36,-9.51,1.19,9.87
-2.35,-9.48,1.23,9.84
-2.35,-9.47,1.28,9.84
-2.35,-9.53,1.26,9.89
-2.36,-9.57,1.23,9.93
-2.33,-9.55,1.29,9.91
-2.34,-9.48,1.26,9.84
-2.34,-9.46,1.27,9.83
-2.34,-9.43,1.26,9.79
-2.35,-9.40,1.23,9.77
-2.35,-9.41,1.27,9.78
-2.35,-9.41,1.28,9.78
-2.33,-9.46,1.25,9.82
-2.35,-9.47,1.27,9.84
-2.35,-9.48,1.30,9.86
-2.34,-9.50,1.32,9.87
-2.35,-9.51,1.33,9.89
-2.38,-9.50,1.32,9.88
-2.37,-9.50,1.42,9.89
-2.31,-9.42,1.24,9.78
-2.31,-9.41,1.26,9.78
-2.32,-9.42,1.24,9.78
-2.38,-9.40,1.31,9.79
-2.37,-9.34,1.27,9.72
-2.35,-9.34,1.22,9.70
-2.35,-9.39,1.32,9.77
-2.36,-9.32,1.21,9.69
-2.36,-9.32,1.24,9.70
-2.38,-9.39,1.20,9.76
-2.37,-9.42,1.18,9.79
-2.37,-9.43,1.25,9.80
-2.34,-9.40,1.26,9.76
-2.35,-9.41,1.27,9.78
-2.33,-9.42,1.29,9.79
-2.36,-9.43,1.28,9.81
-2.39,-9.47,1.29,9.86
-2.38,-9.48,1.27,9.86
-2.38,-9.47,1.27,9.85
-2.33,-9.47,1.25,9.83
-2.31,-9.43,1.24,9.79
-2.33,-9.47,1.29,9.84
-2.33,-9.45,1.28,9.82
-2.34,-9.45,1.26,9.81
-2.33,-9.44,1.25,9.80
-2.36,-9.45,1.23,9.82
-2.33,-9.44,1.24,9.80
-2.33,-9.48,1.24,9.84
-2.35,-9.48,1.23,9.84
-2.34,-9.42,1.24,9.79
-2.34,-9.48,1.26,9.84
-2.33,-9.47,1.25,9.83
-2.34,-9.49,1.22,9.85
-2.34,-9.47,1.18,9.83
-2.34,-9.49,1.20,9.85
-2.37,-9.46,1.26,9.84
-2.36,-9.46,1.28,9.83
-2.43,-9.44,1.47,9.86
-2.38,-9.44,1.34,9.83
-2.31,-9.41,1.15,9.76
-2.25,-9.49,1.02,9.80
-2.25,-9.46,1.28,9.81
-2.17,-9.33,1.32,9.67
-2.30,-9.33,1.35,9.71
-2.34,-9.36,1.40,9.75
-2.39,-9.34,1.39,9.74
-2.40,-9.39,1.24,9.77
-2.39,-9.41,1.25,9.79
-2.35,-9.47,1.22,9.83
-2.33,-9.47,1.19,9.83
-2.32,-9.45,1.19,9.80
-2.34,-9.48,1.21,9.84
-2.38,-9.50,1.21,9.87
-2.37,-9.52,1.24,9.89
-2.40,-9.55,1.28,9.93
-2.37,-9.52,1.30,9.90
-2.36,-9.48,1.30,9.85
-2.36,-9.48,1.27,9.85
-2.36,-9.44,1.23,9.81
-2.35,-9.43,1.23,9.80
-2.31,-9.39,1.18,9.74
-2.33,-9.42,1.16,9.77
-2.36,-9.43,1.28,9.81
-2.34,-9.45,1.22,9.82
-2.34,-9.46,1.28,9.82
-2.33,-9.47,1.22,9.83
-2.39,-9.46,1.26,9.84
-2.35,-9.45,1.26,9.82
-2.35,-9.45,1.31,9.82
-2.31,-9.44,1.14,9.78
-2.29,-9.41,1.19,9.76
-2.32,-9.40,1.22,9.76
-2.37,-9.44,1.30,9.81
-2.36,-9.40,1.23,9.76
-2.39,-9.42,1.23,9.80
-2.38,-9.46,1.37,9.85
-2.34,-9.43,1.26,9.80
-2.36,-9.42,1.25,9.79
-2.36,-9.50,1.24,9.87
-2.35,-9.43,1.23,9.80
-2.36,-9.44,1.24,9.81
-2.38,-9.47,1.26,9.85
-2.36,-9.47,1.27,9.84
-2.38,-9.46,1.28,9.83
-2.42,-9.49,1.31,9.88
-2.40,-9.47,1.33,9.86
-2.37,-9.43,1.32,9.81
-2.35,-9.43,1.29,9.81
-2.37,-9.42,1.30,9.80
-2.34,-9.44,1.28,9.81
-2.37,-9.43,1.30,9.80
-2.34,-9.43,1.29,9.80
-2.37,-9.44,1.32,9.82
-2.39,-9.44,1.32,9.82
-2.39,-9.44,1.31,9.82
-2.40,-9.44,1.31,9.83
-2.40,-9.44,1.28,9.83
-2.39,-9.43,1.31,9.82
-2.39,-9.41,1.29,9.79
-2.36,-9.42,1.30,9.79
-2.37,-9.42,1.27,9.80
-2.37,-9.42,1.25,9.80
-2.38,-9.42,1.28,9.80
-2.39,-9.42,1.29,9.80
-2.42,-9.41,1.39,9.81
-2.49,-9.41,1.47,9.84
-2.49,-9.42,1.39,9.84
-2.37,-9.40,1.07,9.75
-2.36,-9.58,1.19,9.94
-2.35,-9.56,1.18,9.91
-2.31,-9.32,1.27,9.68
-2.36,-9.37,1.49,9.78
-2.42,-9.41,1.42,9.82
-2.44,-9.41,1.34,9.81
-2.48,-9.44,1.25,9.84
-2.41,-9.46,1.24,9.84
-2.36,-9.48,1.25,9.85
-2.34,-9.48,1.24,9.84
-2.35,-9.47,1.24,9.84
-2.39,-9.49,1.24,9.86
-2.41,-9.52,1.23,9.89
-2.37,-9.47,1.19,9.84
-2.41,-9.47,1.36,9.87
-2.39,-9.46,1.28,9.84
-2.37,-9.44,1.31,9.82
-2.35,-9.41,1.28,9.78
-2.37,-9.40,1.24,9.77
-2.36,-9.38,1.24,9.76
-2.35,-9.42,1.25,9.78
-2.37,-9.43,1.24,9.80
-2.37,-9.46,1.41,9.85
-2.37,-9.43,1.30,9.81
-2.35,-9.40,1.28,9.78
-2.34,-9.45,1.29,9.82
-2.37,-9.46,1.28,9.83
-2.41,-9.47,1.27,9.85
-2.37,-9.48,1.26,9.85
-2.37,-9.45,1.23,9.82
-2.39,-9.44,1.18,9.81
-2.39,-9.41,1.26,9.79
-2.43,-9.45,1.35,9.85
-2.42,-9.45,1.36,9.85
-2.43,-9.42,1.38,9.82
-2.41,-9.40,1.38,9.81
-2.39,-9.41,1.32,9.80
-2.39,-9.43,1.37,9.83
-2.43,-9.42,1.34,9.82
-2.44,-9.37,1.27,9.76
-2.41,-9.38,1.26,9.77
-2.39,-9.39,1.26,9.77
-2.38,-9.42,1.29,9.80
-2.41,-9.41,1.29,9.80
-2.39,-9.41,1.30,9.80
-2.38,-9.45,1.29,9.83
-2.41,-9.42,1.32,9.82
-2.39,-9.44,1.25,9.82
-2.39,-9.44,1.37,9.84
-2.35,-9.43,1.29,9.80
-2.36,-9.42,1.30,9.80
-2.38,-9.40,1.31,9.79
-2.38,-9.42,1.32,9.81
-2.39,-9.42,1.31,9.80
-2.39,-9.43,1.32,9.82
-2.40,-9.44,1.29,9.82
-2.40,-9.45,1.28,9.83
-2.39,-9.47,1.26,9.85
-2.37,-9.47,1.30,9.85
-2.37,-9.44,1.30,9.82
-2.40,-9.44,1.32,9.83
-2.38,-9.43,1.29,9.81
-2.38,-9.43,1.29,9.81
-2.40,-9.42,1.26,9.80
-2.42,-9.41,1.26,9.80
-2.42,-9.39,1.13,9.76
-2.44,-9.43,1.39,9.85
-2.49,-9.42,1.56,9.87
-2.51,-9.44,1.53,9.88
-2.36,-9.35,1.24,9.72
-2.31,-9.44,1.18,9.79
-2.32,-9.51,1.24,9.87
-2.30,-9.47,1.15,9.81
-2.36,-9.45,1.43,9.84
-2.40,-9.40,1.54,9.82
-2.46,-9.33,1.46,9.76
-2.47,-9.34,1.36,9.75
-2.50,-9.38,1.30,9.80
-2.44,-9.44,1.29,9.84
-2.47,-9.45,1.19,9.84
-2.38,-9.42,1.18,9.79
-2.36,-9.41,1.20,9.77
-2.37,-9.43,1.24,9.81
-2.39,-9.48,1.27,9.86
-2.42,-9.49,1.30,9.88
-2.41,-9.50,1.31,9.89
-2.43,-9.47,1.32,9.87
-2.44,-9.50,1.31,9.90
-2.42,-9.47,1.31,9.86
-2.42,-9.45,1.28,9.84
-2.42,-9.40,1.28,9.79
-2.42,-9.42,1.30,9.81
-2.42,-9.39,1.30,9.79
-2.43,-9.38,1.28,9.77
-2.44,-9.39,1.31,9.79
-2.47,-9.43,1.29,9.83
-2.45,-9.40,1.29,9.80
-2.43,-9.42,1.29,9.81
-2.42,-9.40,1.27,9.79
-2.40,-9.43,1.26,9.81
-2.40,-9.45,1.30,9.84
-2.38,-9.40,1.16,9.77
-2.38,-9.46,1.21,9.83
-2.39,-9.47,1.30,9.85
-2.43,-9.47,1.34,9.87
-2.40,-9.40,1.21,9.77
-2.41,-9.42,1.25,9.81
-2.44,-9.47,1.31,9.86
-2.40,-9.43,1.29,9.81
-2.38,-9.40,1.30,9.79
-2.36,-9.42,1.30,9.80
-2.36,-9.40,1.23,9.77
-2.40,-9.48,1.20,9.85
-2.41,-9.46,1.24,9.84
-2.42,-9.47,1.24,9.85
-2.41,-9.46,1.22,9.84
-2.42,-9.47,1.23,9.86
-2.47,-9.49,1.25,9.88
-2.46,-9.47,1.26,9.87
-2.45,-9.48,1.31,9.88
-2.41,-9.47,1.25,9.85
-2.35,-9.42,1.26,9.79
-2.34,-9.44,1.24,9.80
-2.34,-9.43,1.25,9.80
-2.36,-9.43,1.25,9.80
-2.43,-9.42,1.26,9.81
-2.45,-9.43,1.27,9.83
-2.46,-9.44,1.26,9.84
-2.47,-9.47,1.28,9.87
-2.45,-9.48,1.27,9.87
-2.46,-9.45,1.30,9.85
-2.45,-9.43,1.28,9.83
-2.40,-9.43,1.27,9.81
-2.38,-9.38,1.29,9.77
-2.38,-9.41,1.27,9.79
-2.37,-9.41,1.27,9.78
-2.39,-9.39,1.26,9.77
-2.40,-9.40,1.26,9.78
-2.43,-9.40,1.23,9.78
-2.41,-9.43,1.26,9.81
-2.48,-9.43,1.17,9.82
-2.46,-9.46,1.22,9.85
-2.46,-9.43,1.28,9.83
-2.45,-9.44,1.29,9.84
-2.46,-9.46,1.32,9.87
-2.49,-9.44,1.48,9.87
-2.44,-9.46,1.72,9.92
-2.45,-9.33,1.32,9.74
-2.22,-9.35,1.16,9.68
-2.25,-9.51,1.19,9.85
-2.26,-9.49,1.02,9.80
-2.39,-9.44,1.10,9.79
-2.41,-9.47,1.38,9.87
-2.49,-9.47,1.58,9.92
-2.55,-9.35,1.41,9.80
-2.54,-9.32,1.21,9.74
-2.59,-9.41,1.23,9.84
-2.51,-9.45,1.26,9.86
-2.46,-9.44,1.20,9.83
-2.42,-9.45,1.18,9.83
-2.38,-9.49,1.18,9.85
-2.37,-9.47,1.20,9.84
-2.32,-9.50,1.24,9.86
-2.38,-9.48,1.29,9.86
-2.41,-9.47,1.26,9.86
-2.45,-9.48,1.30,9.87
-2.44,-9.49,1.32,9.89
-2.43,-9.44,1.28,9.84
-2.43,-9.43,1.28,9.82
-2.39,-9.41,1.31,9.80
-2.37,-9.42,1.29,9.80
-2.35,-9.39,1.30,9.77
-2.35,-9.40,1.26,9.77
-2.35,-9.38,1.25,9.75
-2.41,-9.41,1.21,9.79
-2.45,-9.41,1.24,9.80
-2.46,-9.42,1.24,9.81
-2.48,-9.42,1.27,9.82
-2.49,-9.43,1.32,9.84
-2.51,-9.45,1.26,9.86
-2.50,-9.44,1.30,9.85
-2.42,-9.43,1.31,9.82
-2.41,-9.43,1.34,9.82
-2.34,-9.42,1.48,9.82
-2.37,-9.39,1.13,9.75
-2.42,-9.39,1.20,9.77
-2.40,-9.42,1.29,9.80
-2.41,-9.38,1.31,9.77
-2.42,-9.40,1.29,9.80
-2.44,-9.42,1.29,9.81
-2.43,-9.44,1.26,9.83
-2.45,-9.45,1.30,9.85
-2.50,-9.44,1.21,9.84
-2.47,-9.49,1.32,9.90
-2.50,-9.47,1.26,9.88
-2.42,-9.49,1.27,9.87
-2.43,-9.46,1.30,9.85
-2.43,-9.47,1.22,9.86
-2.40,-9.46,1.30,9.85
-2.37,-9.47,1.34,9.85
-2.34,-9.46,1.28,9.83
-2.32,-9.43,1.26,9.79
-2.29,-9.45,1.32,9.81
-2.29,-9.43,1.27,9.78
-2.30,-9.44,1.28,9.80
-2.32,-9.48,1.30,9.85
-2.34,-9.43,1.29,9.80
-2.36,-9.43,1.28,9.80
-2.34,-9.46,1.29,9.83
-2.31,-9.46,1.25,9.81
-2.34,-9.46,1.38,9.85
-2.30,-9.43,1.19,9.78
-2.33,-9.45,1.27,9.82
-2.35,-9.43,1.33,9.81
-2.34,-9.43,1.24,9.80
-2.32,-9.46,1.33,9.83
-2.31,-9.43,1.37,9.80
-2.32,-9.42,1.30,9.79
-2.26,-9.43,1.34,9.79
-2.29,-9.45,1.27,9.81
-2.34,-9.46,1.34,9.83
-2.35,-9.42,1.30,9.80
-2.41,-9.44,1.27,9.82
-2.41,-9.45,1.29,9.83
-2.48,-9.43,1.23,9.83
-2.47,-9.46,1.30,9.86
-2.48,-9.48,1.29,9.88
-2.49,-9.48,1.33,9.89
-2.50,-9.46,1.29,9.87
-2.44,-9.43,1.34,9.84
-2.45,-9.43,1.29,9.83
-2.42,-9.43,1.34,9.83
-2.37,-9.40,1.21,9.77
-2.34,-9.40,1.24,9.77
-2.37,-9.41,1.28,9.79
-2.43,-9.40,1.36,9.81
-2.49,-9.43,1.53,9.88
-2.44,-9.40,1.39,9.81
-2.27,-9.26,1.13,9.60
-2.28,-9.47,1.21,9.82
-2.29,-9.53,1.21,9.87
-2.34,-9.41,1.20,9.77
-2.40,-9.42,1.46,9.83
-2.42,-9.39,1.57,9.83
-2.42,-9.32,1.42,9.73
-2.39,-9.36,1.36,9.76
-2.40,-9.38,1.28,9.77
-2.35,-9.42,1.23,9.79
-2.31,-9.44,1.27,9.80
-2.34,-9.44,1.23,9.81
-2.31,-9.47,1.25,9.82
-2.33,-9.48,1.27,9.84
-2.35,-9.49,1.28,9.86
-2.37,-9.51,1.36,9.89
-2.40,-9.48,1.35,9.87
-2.39,-9.50,1.32,9.88
-2.40,-9.50,1.33,9.89
-2.38,-9.47,1.32,9.85
-2.38,-9.46,1.37,9.85
-2.34,-9.44,1.29,9.81
-2.30,-9.42,1.35,9.79
-2.30,-9.42,1.35,9.79
-2.32,-9.41,1.29,9.78
-2.34,-9.42,1.31,9.79
-2.36,-9.46,1.31,9.84
-2.38,-9.45,1.32,9.83
-2.41,-9.41,1.30,9.80
-2.43,-9.46,1.29,9.85
-2.44,-9.44,1.32,9.84
-2.44,-9.43,1.23,9.82
-2.42,-9.44,1.27,9.83
-2.41,-9.47,1.39,9.87
-2.42,-9.44,1.44,9.85
-2.34,-9.38,1.30,9.76
-2.34,-9.38,1.29,9.76
-2.34,-9.42,1.32,9.80
-2.33,-9.45,1.30,9.82
-2.33,-9.43,1.36,9.80
-2.34,-9.44,1.33,9.82
-2.37,-9.42,1.32,9.80
-2.39,-9.43,1.30,9.81
-2.36,-9.46,1.33,9.84
-2.38,-9.43,1.31,9.82
-2.38,-9.44,1.30,9.82
-2.40,-9.44,1.31,9.83
-2.42,-9.44,1.33,9.83
-2.42,-9.44,1.35,9.84
-2.42,-9.43,1.33,9.83
-2.46,-9.42,1.28,9.82
-2.43,-9.44,1.38,9.84
-2.39,-9.43,1.29,9.82
-2.37,-9.44,1.28,9.82
-2.35,-9.46,1.31,9.84
-2.39,-9.45,1.33,9.83
-2.36,-9.44,1.31,9.82
-2.42,-9.44,1.33,9.84
-2.38,-9.44,1.30,9.83
-2.40,-9.45,1.34,9.84
-2.37,-9.44,1.34,9.83
-2.38,-9.44,1.31,9.82
-2.33,-9.46,1.31,9.83
-2.31,-9.43,1.32,9.79
-2.35,-9.46,1.32,9.83
-2.34,-9.45,1.32,9.82
-2.34,-9.44,1.39,9.82
-2.40,-9.42,1.29,9.80
-2.39,-9.43,1.28,9.81
-2.37,-9.45,1.28,9.83
-2.42,-9.42,1.30,9.82
-2.44,-9.42,1.29,9.82
-2.46,-9.44,1.33,9.85
-2.44,-9.43,1.36,9.83
-2.41,-9.43,1.34,9.83
-2.44,-9.43,1.34,9.83
-2.46,-9.43,1.37,9.84
-2.40,-9.42,1.31,9.81
-2.36,-9.39,1.30,9.77
-2.38,-9.42,1.27,9.80
-2.40,-9.43,1.25,9.81
-2.46,-9.45,1.48,9.87
-2.48,-9.42,1.56,9.86
-2.40,-9.38,1.28,9.77
-2.35,-9.35,1.19,9.72
-2.36,-9.50,1.19,9.86
-2.39,-9.51,1.24,9.88
-2.36,-9.43,1.20,9.79
-2.39,-9.41,1.48,9.82
-2.40,-9.34,1.61,9.78
-2.40,-9.31,1.49,9.72
-2.42,-9.28,1.36,9.68
-2.45,-9.37,1.34,9.78
-2.40,-9.35,1.16,9.72
-2.39,-9.45,1.27,9.83
-2.40,-9.42,1.21,9.80
-2.42,-9.43,1.22,9.81
-2.42,-9.48,1.26,9.86
-2.42,-9.49,1.30,9.88
-2.45,-9.54,1.36,9.94
-2.46,-9.47,1.36,9.88
-2.46,-9.47,1.37,9.88
-2.39,-9.43,1.34,9.82
-2.37,-9.44,1.31,9.82
-2.37,-9.42,1.30,9.80
-2.37,-9.39,1.31,9.77
-2.39,-9.41,1.30,9.80
-2.41,-9.41,1.30,9.80
-2.42,-9.44,1.34,9.84
-2.41,-9.45,1.31,9.84
-2.43,-9.41,1.31,9.81
-2.43,-9.45,1.32,9.84
-2.44,-9.42,1.30,9.81
-2.43,-9.42,1.33,9.82
-2.41,-9.40,1.23,9.79
-2.40,-9.40,1.30,9.79
-2.36,-9.41,1.29,9.78
-2.40,-9.42,1.41,9.82
-2.37,-9.37,1.35,9.76
-2.37,-9.38,1.29,9.76
-2.42,-9.41,1.35,9.81
-2.42,-9.43,1.29,9.83
-2.41,-9.44,1.34,9.83
-2.41,-9.40,1.34,9.80
-2.38,-9.45,1.31,9.83
-2.44,-9.43,1.29,9.82
-2.37,-9.45,1.33,9.83
-2.40,-9.43,1.29,9.81
-2.38,-9.44,1.30,9.82
-2.40,-9.45,1.28,9.84
-2.39,-9.46,1.31,9.84
-2.43,-9.45,1.31,9.85
-2.42,-9.46,1.31,9.85
-2.43,-9.41,1.31,9.81
-2.41,-9.43,1.30,9.82
-2.40,-9.41,1.30,9.80
-2.39,-9.40,1.29,9.79
-2.35,-9.43,1.29,9.81
-2.39,-9.43,1.31,9.82
-2.37,-9.42,1.29,9.80
-2.37,-9.43,1.30,9.81
-2.40,-9.43,1.28,9.81
-2.38,-9.44,1.28,9.82
-2.41,-9.51,1.38,9.91
-2.42,-9.46,1.32,9.86
-2.37,-9.41,1.23,9.78
-2.34,-9.46,1.33,9.84
-2.40,-9.42,1.33,9.82
-2.35,-9.40,1.29,9.78
-2.41,-9.46,1.26,9.84
-2.38,-9.43,1.28,9.81
-2.37,-9.40,1.31,9.78
-2.39,-9.40,1.30,9.79
-2.39,-9.40,1.30,9.79
-2.39,-9.39,1.31,9.78
-2.39,-9.41,1.29,9.80
-2.36,-9.40,1.26,9.77
-2.36,-9.42,1.23,9.79
-2.41,-9.43,1.30,9.82
-2.40,-9.41,1.19,9.79
-2.45,-9.44,1.24,9.83
-2.46,-9.43,1.30,9.83
-2.49,-9.48,1.55,9.92
-2.49,-9.44,1.41,9.87
-2.35,-9.35,1.23,9.72
-2.32,-9.45,1.16,9.80
-2.34,-9.50,1.25,9.87
-2.37,-9.47,1.10,9.82
-2.34,-9.48,1.35,9.85
-2.37,-9.47,1.41,9.87
-2.42,-9.38,1.38,9.78
-2.44,-9.35,1.29,9.75
-2.44,-9.38,1.24,9.77
-2.42,-9.39,1.20,9.77
-2.43,-9.42,1.22,9.81
-2.38,-9.46,1.20,9.83
-2.36,-9.45,1.20,9.81
-2.42,-9.45,1.10,9.82
-2.38,-9.52,1.27,9.89
-2.36,-9.54,1.27,9.90
-2.38,-9.53,1.31,9.91
-2.40,-9.48,1.25,9.86
-2.42,-9.48,1.29,9.87
-2.40,-9.45,1.26,9.83
-2.40,-9.45,1.31,9.84
-2.37,-9.43,1.29,9.80
-2.36,-9.38,1.27,9.76
-2.39,-9.38,1.26,9.76
-2.36,-9.40,1.26,9.77
-2.37,-9.40,1.27,9.77
-2.37,-9.41,1.26,9.79
-2.40,-9.42,1.24,9.80
-2.39,-9.41,1.25,9.79
-2.37,-9.42,1.31,9.80
-2.40,-9.40,1.19,9.77
-2.41,-9.39,1.21,9.77
-2.41,-9.45,1.30,9.84
-2.43,-9.45,1.32,9.85
-2.37,-9.43,1.30,9.81
-2.39,-9.42,1.31,9.80
-2.42,-9.45,1.31,9.84
-2.42,-9.44,1.25,9.82
-2.41,-9.43,1.26,9.81
-2.42,-9.45,1.27,9.83
-2.41,-9.44,1.26,9.82
-2.43,-9.45,1.27,9.84
-2.40,-9.45,1.26,9.83
-2.45,-9.43,1.24,9.82
-2.44,-9.46,1.35,9.86
-2.42,-9.44,1.25,9.83
-2.39,-9.45,1.27,9.83
-2.39,-9.47,1.27,9.85
-2.40,-9.47,1.30,9.85
-2.42,-9.46,1.27,9.84
-2.45,-9.45,1.28,9.84
-2.41,-9.45,1.26,9.83
-2.43,-9.42,1.27,9.81
-2.43,-9.44,1.30,9.83
-2.44,-9.42,1.26,9.81
-2.41,-9.42,1.27,9.80
-2.43,-9.44,1.26,9.83
-2.40,-9.42,1.26,9.81
-2.42,-9.45,1.25,9.84
-2.40,-9.43,1.26,9.81
-2.42,-9.44,1.26,9.82
-2.41,-9.46,1.26,9.84
-2.42,-9.45,1.29,9.84
-2.41,-9.46,1.25,9.84
-2.40,-9.45,1.22,9.82
-2.38,-9.45,1.34,9.83
-2.43,-9.45,1.29,9.84
-2.41,-9.43,1.27,9.82
-2.38,-9.44,1.23,9.82
-2.38,-9.44,1.24,9.81
-2.38,-9.44,1.20,9.80
-2.36,-9.42,1.23,9.78
-2.37,-9.42,1.26,9.80
-2.37,-9.43,1.27,9.81
-2.39,-9.45,1.22,9.82
-2.39,-9.46,1.23,9.84
-2.38,-9.41,1.21,9.79
-2.41,-9.42,1.23,9.80
-2.39,-9.43,1.24,9.80
-2.44,-9.44,1.28,9.83
-2.43,-9.46,1.41,9.87
-2.47,-9.49,1.36,9.90
-2.34,-9.40,1.17,9.76
-2.31,-9.38,1.14,9.73
-2.36,-9.51,1.17,9.87
-2.32,-9.47,1.12,9.81
-2.33,-9.42,1.18,9.77
-2.36,-9.42,1.49,9.82
-2.43,-9.41,1.30,9.81
-2.46,-9.42,1.30,9.82
-2.45,-9.42,1.20,9.80
-2.41,-9.44,1.16,9.81
-2.37,-9.45,1.18,9.82
-2.32,-9.48,1.18,9.83
-2.34,-9.48,1.14,9.83
-2.36,-9.51,1.14,9.86
-2.37,-9.53,1.16,9.89
-2.41,-9.54,1.11,9.91
-2.38,-9.54,1.26,9.91
-2.41,-9.52,1.31,9.90
-2.42,-9.47,1.28,9.86
-2.38,-9.46,1.24,9.83
-2.39,-9.40,1.24,9.78
-2.34,-9.42,1.24,9.79
-2.34,-9.39,1.21,9.75
-2.33,-9.40,1.20,9.76
-2.29,-9.41,1.19,9.76
-2.32,-9.42,1.20,9.78
-2.35,-9.41,1.18,9.77
-2.37,-9.43,1.20,9.80
-2.40,-9.45,1.23,9.82
-2.37,-9.46,1.15,9.82
-2.38,-9.45,1.17,9.81
-2.35,-9.46,1.17,9.82
-2.40,-9.48,1.27,9.86
-2.40,-9.43,1.23,9.81
-2.35,-9.42,1.18,9.78
-2.36,-9.44,1.26,9.81
-2.37,-9.45,1.20,9.82
-2.34,-9.38,1.19,9.74
-2.36,-9.45,1.19,9.81
-2.36,-9.44,1.18,9.81
-2.38,-9.47,1.21,9.84
-2.39,-9.47,1.23,9.84
-2.39,-9.47,1.21,9.84
-2.39,-9.45,1.22,9.82
-2.41,-9.46,1.18,9.84
-2.37,-9.46,1.08,9.82
-2.35,-9.47,1.24,9.84
-2.35,-9.46,1.18,9.82
-2.33,-9.44,1.22,9.80
-2.35,-9.46,1.18,9.82
-2.33,-9.48,1.14,9.83
-2.35,-9.46,1.26,9.83
-2.37,-9.45,1.21,9.82
-2.38,-9.50,1.25,9.88
-2.37,-9.47,1.25,9.84
-2.39,-9.45,1.23,9.82
-2.38,-9.49,1.23,9.86
-2.36,-9.46,1.25,9.83
-2.37,-9.46,1.20,9.83
-2.36,-9.47,1.22,9.83
-2.37,-9.46,1.20,9.82
-2.32,-9.41,1.14,9.76
-2.35,-9.45,1.19,9.81
-2.35,-9.45,1.17,9.81
-2.37,-9.45,1.20,9.82
-2.37,-9.47,1.27,9.84
-2.36,-9.41,1.24,9.78
-2.32,-9.45,1.23,9.81
-2.36,-9.47,1.20,9.83
-2.35,-9.43,1.17,9.79
-2.36,-9.47,1.14,9.82
-2.37,-9.46,1.22,9.82
-2.34,-9.45,1.16,9.80
-2.35,-9.44,1.15,9.80
-2.37,-9.44,1.21,9.80
-2.36,-9.49,1.28,9.86
-2.36,-9.45,1.23,9.81
-2.38,-9.47,1.35,9.86
-2.42,-9.49,1.34,9.89
-2.32,-9.42,1.03,9.75
-2.26,-9.42,1.02,9.74
-2.26,-9.52,1.21,9.86
-2.23,-9.40,1.15,9.73
-2.32,-9.39,1.18,9.75
-2.42,-9.49,1.28,9.88
-2.45,-9.38,1.26,9.78
-2.44,-9.42,1.24,9.81
-2.43,-9.51,1.14,9.88
-2.38,-9.55,1.16,9.91
-2.38,-9.54,1.19,9.91
-2.35,-9.54,1.17,9.89
-2.32,-9.53,1.14,9.87
-2.34,-9.50,1.24,9.86
-2.33,-9.52,1.17,9.87
-2.32,-9.48,1.19,9.83
-2.35,-9.45,1.19,9.81
-2.32,-9.43,1.23,9.79
-2.32,-9.42,1.19,9.77
-2.32,-9.41,1.16,9.76
-2.32,-9.40,1.15,9.75
-2.32,-9.41,1.16,9.76
-2.34,-9.42,1.20,9.78
-2.35,-9.38,1.18,9.74
-2.36,-9.43,1.17,9.79
-2.36,-9.41,1.19,9.78
-2.34,-9.44,1.16,9.80
-2.33,-9.48,1.23,9.84
-2.31,-9.47,1.14,9.82
-2.27,-9.42,1.12,9.75
-2.27,-9.45,1.13,9.78
-2.33,-9.47,1.22,9.83
-2.34,-9.45,1.20,9.81
-2.35,-9.45,1.18,9.80
-2.34,-9.47,1.20,9.83
-2.36,-9.44,1.17,9.80
-2.37,-9.47,1.25,9.85
-2.33,-9.39,1.19,9.75
-2.32,-9.49,1.28,9.85
-2.37,-9.46,1.06,9.81
-2.35,-9.47,1.16,9.83
-2.34,-9.48,1.20,9.83
-2.34,-9.50,1.18,9.85
-2.34,-9.47,1.12,9.82
-2.33,-9.50,1.20,9.86
-2.35,-9.50,1.19,9.86
-2.34,-9.49,1.16,9.85
-2.33,-9.51,1.17,9.86
-2.30,-9.48,1.17,9.82
-2.31,-9.45,1.16,9.80
-2.32,-9.44,1.18,9.79
-2.33,-9.43,1.17,9.79
-2.32,-9.46,1.20,9.82
-2.31,-9.48,1.20,9.83
-2.32,-9.41,1.21,9.77
-2.34,-9.45,1.21,9.81
-2.34,-9.44,1.15,9.79
-2.35,-9.44,1.14,9.79
-2.36,-9.43,1.20,9.79
-2.35,-9.42,1.15,9.78
-2.34,-9.43,1.17,9.79
-2.34,-9.43,1.20,9.79
-2.34,-9.46,1.18,9.82
-2.33,-9.47,1.19,9.83
-2.33,-9.45,1.15,9.80
-2.31,-9.46,1.15,9.81
-2.34,-9.44,1.12,9.79
-2.36,-9.45,1.15,9.80
-2.34,-9.49,1.27,9.85
-2.34,-9.45,1.26,9.82
-2.43,-9.44,1.31,9.84
-2.43,-9.46,1.39,9.87
-2.39,-9.47,1.23,9.85
-2.25,-9.43,0.89,9.74
-2.20,-9.47,1.01,9.77
-2.16,-9.43,1.21,9.75
-2.32,-9.41,1.12,9.75
-2.38,-9.44,1.22,9.81
-2.41,-9.39,1.28,9.78
-2.46,-9.45,1.24,9.84
-2.42,-9.49,1.19,9.87
-2.41,-9.51,1.11,9.88
-2.35,-9.57,1.13,9.92
-2.35,-9.54,1.13,9.89
-2.30,-9.48,1.18,9.83
-2.33,-9.49,1.19,9.84
-2.37,-9.52,1.19,9.88
-2.37,-9.49,1.18,9.85
-2.39,-9.48,1.24,9.85
-2.40,-9.45,1.24,9.83
-2.41,-9.42,1.14,9.79
-2.37,-9.43,1.18,9.79
-2.37,-9.42,1.21,9.79
-2.33,-9.39,1.18,9.74
-2.36,-9.42,1.23,9.79
-2.35,-9.41,1.14,9.77
-2.35,-9.46,1.20,9.82
-2.35,-9.44,1.16,9.80
-2.36,-9.46,1.22,9.82
-2.35,-9.49,1.15,9.85
-2.34,-9.48,1.26,9.85
-2.34,-9.50,1.17,9.85
-2.26,-9.46,1.11,9.79
-2.26,-9.47,1.20,9.81
-2.35,-9.47,1.31,9.85
-2.36,-9.42,1.28,9.80
-2.37,-9.43,1.23,9.80
-2.36,-9.48,1.20,9.85
-2.38,-9.45,1.27,9.83
-2.37,-9.43,1.21,9.80
-2.33,-9.43,1.16,9.78
-2.37,-9.49,1.10,9.84
-2.38,-9.52,1.15,9.88
-2.38,-9.46,1.19,9.82
-2.38,-9.45,1.18,9.82
-2.39,-9.44,1.19,9.81
-2.40,-9.48,1.26,9.86
-2.38,-9.47,1.17,9.84
-2.36,-9.47,1.25,9.83
-2.33,-9.49,1.20,9.84
-2.32,-9.46,1.20,9.82
-2.39,-9.47,1.19,9.84
-2.39,-9.46,1.18,9.83
-2.42,-9.46,1.26,9.84
-2.44,-9.45,1.28,9.84
-2.43,-9.43,1.26,9.82
-2.41,-9.42,1.27,9.81
-2.40,-9.43,1.25,9.81
-2.39,-9.41,1.18,9.78
-2.36,-9.44,1.21,9.80
-2.37,-9.42,1.26,9.80
-2.36,-9.40,1.25,9.77
-2.37,-9.38,1.28,9.76
-2.38,-9.39,1.30,9.78
-2.39,-9.40,1.24,9.78
-2.41,-9.43,1.20,9.80
-2.39,-9.43,1.21,9.81
-2.40,-9.44,1.21,9.82
-2.42,-9.43,1.30,9.82
-2.43,-9.38,1.35,9.79
-2.45,-9.44,1.51,9.87
-2.49,-9.44,1.50,9.88
-2.32,-9.37,1.20,9.73
-2.23,-9.49,1.05,9.80
-2.26,-9.53,1.23,9.87
-2.18,-9.33,1.27,9.67
-2.31,-9.38,1.35,9.75
-2.32,-9.42,1.36,9.79
-2.38,-9.37,1.32,9.76
-2.38,-9.44,1.28,9.82
-2.40,-9.45,1.22,9.83
-2.39,-9.48,1.19,9.85
-2.36,-9.49,1.27,9.86
-2.39,-9.47,1.14,9.84
-2.40,-9.48,1.19,9.85
-2.43,-9.50,1.23,9.89
-2.47,-9.53,1.24,9.92
-2.51,-9.49,1.27,9.90
-2.51,-9.47,1.31,9.89
-2.53,-9.42,1.30,9.84
-2.50,-9.44,1.30,9.85
-2.46,-9.40,1.30,9.80
-2.45,-9.39,1.31,9.79
-2.42,-9.39,1.30,9.78
-2.38,-9.40,1.25,9.78
-2.40,-9.39,1.28,9.77
-2.39,-9.40,1.25,9.78
-2.39,-9.39,1.29,9.78
-2.38,-9.40,1.28,9.78
-2.45,-9.40,1.31,9.80
-2.47,-9.42,1.32,9.83
-2.44,-9.43,1.37,9.83
-2.44,-9.37,1.21,9.76
-2.40,-9.34,1.24,9.72
-2.45,-9.39,1.30,9.79
-2.48,-9.43,1.34,9.84
-2.45,-9.41,1.35,9.81
-2.49,-9.42,1.33,9.83
-2.50,-9.42,1.40,9.85
-2.49,-9.38,1.35,9.80
-2.47,-9.38,1.30,9.79
-2.45,-9.44,1.28,9.84
-2.43,-9.42,1.28,9.81
-2.42,-9.42,1.29,9.81
-2.42,-9.42,1.25,9.80
-2.45,-9.43,1.25,9.82
-2.41,-9.42,1.30,9.81
-2.43,-9.48,1.33,9.88
-2.43,-9.44,1.28,9.83
-2.45,-9.44,1.31,9.84
-2.40,-9.45,1.29,9.83
-2.38,-9.44,1.32,9.82
-2.40,-9.44,1.27,9.82
-2.38,-9.45,1.35,9.84
-2.39,-9.43,1.31,9.81
-2.43,-9.42,1.30,9.82
-2.43,-9.43,1.34,9.83
-2.44,-9.43,1.31,9.83
-2.45,-9.41,1.30,9.81
-2.46,-9.32,1.19,9.71
-2.43,-9.55,1.34,9.95
-2.39,-9.44,1.32,9.83
-2.41,-9.45,1.34,9.84
-2.41,-9.39,1.26,9.78
-2.40,-9.42,1.25,9.80
-2.39,-9.40,1.29,9.79
-2.37,-9.40,1.24,9.77
-2.36,-9.41,1.22,9.78
-2.37,-9.40,1.31,9.78
-2.41,-9.41,1.33,9.80
-2.49,-9.44,1.59,9.89
-2.49,-9.47,1.35,9.88
-2.34,-9.33,1.18,9.69
-2.35,-9.46,1.14,9.81
-2.35,-9.55,1.22,9.91
-2.35,-9.42,1.23,9.79
-2.38,-9.42,1.50,9.83
-2.39,-9.41,1.57,9.83
-2.40,-9.37,1.40,9.77
-2.44,-9.40,1.34,9.80
-2.43,-9.40,1.29,9.79
-2.43,-9.46,1.21,9.85
-2.42,-9.45,1.20,9.83
-2.40,-9.45,1.18,9.82
-2.37,-9.47,1.21,9.83
-2.41,-9.51,1.23,9.89
-2.43,-9.50,1.21,9.88
-2.43,-9.48,1.32,9.87
-2.42,-9.47,1.32,9.86
-2.37,-9.45,1.23,9.82
-2.37,-9.46,1.27,9.84
-2.35,-9.45,1.34,9.83
-2.35,-9.43,1.33,9.80
-2.36,-9.40,1.31,9.78
-2.37,-9.41,1.31,9.79
-2.36,-9.41,1.29,9.79
-2.36,-9.43,1.29,9.81
-2.39,-9.44,1.29,9.82
-2.39,-9.42,1.30,9.80
-2.42,-9.43,1.36,9.83
-2.41,-9.46,1.25,9.84
-2.41,-9.45,1.27,9.84
-2.39,-9.46,1.30,9.84
-2.44,-9.39,1.21,9.78
-2.40,-9.43,1.24,9.81
-2.39,-9.45,1.28,9.83
-2.42,-9.48,1.38,9.88
-2.37,-9.40,1.34,9.79
-2.39,-9.38,1.28,9.77
-2.40,-9.44,1.25,9.82
-2.41,-9.44,1.18,9.81
-2.40,-9.44,1.35,9.83
-2.38,-9.44,1.28,9.82
-2.38,-9.42,1.23,9.80
-2.39,-9.44,1.25,9.82
-2.38,-9.49,1.26,9.86
-2.37,-9.44,1.22,9.81
-2.37,-9.49,1.33,9.87
-2.38,-9.45,1.27,9.83
-2.35,-9.45,1.20,9.81
-2.43,-9.48,1.27,9.87
-2.40,-9.46,1.27,9.84
-2.38,-9.43,1.29,9.81
-2.33,-9.40,1.26,9.77
-2.30,-9.42,1.27,9.78
-2.31,-9.45,1.32,9.82
-2.29,-9.46,1.28,9.81
-2.32,-9.44,1.26,9.80
-2.33,-9.46,1.31,9.83
-2.30,-9.47,1.24,9.83
-2.34,-9.48,1.23,9.84
-2.29,-9.50,1.21,9.84
-2.31,-9.49,1.23,9.84
-2.33,-9.49,1.23,9.85
-2.32,-9.48,1.28,9.84
-2.33,-9.46,1.27,9.83
-2.33,-9.46,1.25,9.82
-2.34,-9.43,1.25,9.80
-2.34,-9.42,1.19,9.78
-2.29,-9.43,1.10,9.76
-2.34,-9.43,1.20,9.79
-2.37,-9.42,1.38,9.81
-2.45,-9.48,1.55,9.91
-2.43,-9.40,1.31,9.80
-2.38,-9.33,1.11,9.70
-2.34,-9.43,1.06,9.78
-2.33,-9.53,1.15,9.88
-2.33,-9.46,1.14,9.81
-2.40,-9.45,1.32,9.84
-2.42,-9.46,1.50,9.88
-2.43,-9.40,1.41,9.81
-2.41,-9.37,1.31,9.76
-2.41,-9.41,1.28,9.80
-2.35,-9.45,1.18,9.81
-2.32,-9.48,1.23,9.84
-2.29,-9.49,1.20,9.84
-2.29,-9.48,1.18,9.82
-2.35,-9.50,1.14,9.86
-2.38,-9.52,1.23,9.89
-2.38,-9.49,1.27,9.86
-2.44,-9.46,1.31,9.86
-2.42,-9.47,1.30,9.86
-2.40,-9.44,1.32,9.83
-2.39,-9.45,1.29,9.84
-2.37,-9.45,1.29,9.83
-2.37,-9.44,1.27,9.82
-2.33,-9.42,1.26,9.78
-2.37,-9.41,1.28,9.79
-2.39,-9.41,1.25,9.79
-2.35,-9.43,1.27,9.81
-2.33,-9.40,1.26,9.77
-2.34,-9.43,1.24,9.79
-2.36,-9.43,1.19,9.79
-2.33,-9.44,1.29,9.81
-2.34,-9.46,1.30,9.83
-2.39,-9.49,1.19,9.85
-2.39,-9.49,1.26,9.87
-2.38,-9.49,1.31,9.87
-2.36,-9.46,1.32,9.83
-2.37,-9.43,1.21,9.80
-2.34,-9.41,1.23,9.77
-2.39,-9.46,1.30,9.84
-2.36,-9.47,1.30,9.85
-2.33,-9.41,1.28,9.78
-2.34,-9.42,1.24,9.78
-2.34,-9.44,1.25,9.81
-2.34,-9.46,1.26,9.83
-2.39,-9.48,1.27,9.86
-2.39,-9.48,1.28,9.86
-2.40,-9.46,1.26,9.84
-2.41,-9.47,1.23,9.85
-2.46,-9.43,1.06,9.81
-2.42,-9.46,1.33,9.85
-2.38,-9.45,1.25,9.82
-2.39,-9.43,1.13,9.79
-2.35,-9.42,1.34,9.80
-2.32,-9.40,1.22,9.76
-2.32,-9.43,1.31,9.80
-2.28,-9.41,1.25,9.76
-2.31,-9.44,1.27,9.80
-2.31,-9.46,1.29,9.82
-2.32,-9.44,1.27,9.80
-2.32,-9.48,1.26,9.84
-2.34,-9.49,1.25,9.85
-2.33,-9.49,1.25,9.85
-2.32,-9.49,1.41,9.87
-2.37,-9.47,1.16,9.83
-2.35,-9.47,1.29,9.84
-2.39,-9.45,1.31,9.84
-2.35,-9.42,1.31,9.80
-2.36,-9.42,1.38,9.81
-2.40,-9.41,1.15,9.78
-2.36,-9.41,1.22,9.78
-2.37,-9.40,1.21,9.78
-2.37,-9.44,1.21,9.81
-2.40,-9.44,1.29,9.83
-2.49,-9.44,1.46,9.87
-2.47,-9.46,1.44,9.88
-2.39,-9.38,1.44,9.78
-2.29,-9.37,1.05,9.70
-2.32,-9.47,1.18,9.82
-2.30,-9.49,1.12,9.82
-2.35,-9.42,1.27,9.79
-2.34,-9.46,1.34,9.83
-2.37,-9.40,1.48,9.81
-2.38,-9.36,1.31,9.74
-2.37,-9.38,1.36,9.77
-2.33,-9.45,1.30,9.82
-2.34,-9.46,1.05,9.80
-2.30,-9.45,1.17,9.80
-2.33,-9.51,1.18,9.86
-2.36,-9.53,1.22,9.89
-2.35,-9.53,1.22,9.89
-2.37,-9.49,1.27,9.87
-2.38,-9.48,1.30,9.86
-2.39,-9.47,1.30,9.85
-2.39,-9.44,1.29,9.82
-2.38,-9.43,1.28,9.81
-2.39,-9.44,1.27,9.82
-2.35,-9.41,1.27,9.78
-2.35,-9.42,1.28,9.79
-2.35,-9.39,1.28,9.76
-2.32,-9.39,1.28,9.75
-2.33,-9.40,1.27,9.76
-2.30,-9.41,1.25,9.77
-2.32,-9.42,1.24,9.78
-2.36,-9.43,1.24,9.80
-2.36,-9.45,1.25,9.82
-2.36,-9.46,1.25,9.83
-2.36,-9.44,1.21,9.80
-2.35,-9.46,1.25,9.82
-2.38,-9.47,1.31,9.85
-2.39,-9.48,1.32,9.86
-2.36,-9.40,1.26,9.78
-2.37,-9.48,1.26,9.85
-2.39,-9.44,1.28,9.82
-2.40,-9.43,1.27,9.82
-2.36,-9.43,1.30,9.81
-2.35,-9.42,1.29,9.80
-2.39,-9.41,1.26,9.79
-2.37,-9.43,1.26,9.80
-2.36,-9.45,1.26,9.82
-2.37,-9.45,1.29,9.82
-2.40,-9.46,1.25,9.84
-2.38,-9.45,1.26,9.83
-2.39,-9.47,1.29,9.85
-2.36,-9.45,1.29,9.83
-2.39,-9.45,1.28,9.83
-2.36,-9.44,1.28,9.81
-2.36,-9.45,1.29,9.82
-2.34,-9.44,1.28,9.81
-2.34,-9.43,1.25,9.80
-2.34,-9.44,1.29,9.81
-2.34,-9.45,1.27,9.82
-2.39,-9.46,1.27,9.84
-2.37,-9.45,1.27,9.83
-2.37,-9.48,1.25,9.85
-2.38,-9.44,1.28,9.82
-2.38,-9.44,1.27,9.82
-2.37,-9.46,1.27,9.84
-2.34,-9.44,1.23,9.81
-2.36,-9.44,1.26,9.81
-2.36,-9.46,1.29,9.83
-2.33,-9.42,1.30,9.79
-2.38,-9.41,1.28,9.79
-2.35,-9.43,1.28,9.80
-2.36,-9.40,1.29,9.78
-2.37,-9.41,1.29,9.79
-2.38,-9.40,1.26,9.78
-2.39,-9.44,1.26,9.82
-2.36,-9.45,1.23,9.82
-2.35,-9.40,1.23,9.77
-2.34,-9.42,1.26,9.79
-2.41,-9.45,1.32,9.84
-2.45,-9.48,1.48,9.90
-2.45,-9.42,1.33,9.83
-2.37,-9.37,1.22,9.74
-2.30,-9.45,1.15,9.79
-2.31,-9.54,1.15,9.88
-2.31,-9.50,1.12,9.84
-2.36,-9.47,1.33,9.85
-2.37,-9.45,1.47,9.85
-2.38,-9.40,1.41,9.80
-2.41,-9.38,1.37,9.78
-2.39,-9.44,1.31,9.83
-2.41,-9.46,1.37,9.85
-2.33,-9.44,1.22,9.80
-2.31,-9.45,1.22,9.80
-2.34,-9.45,1.21,9.81
-2.34,-9.50,1.22,9.86
-2.40,-9.49,1.26,9.87
-2.39,-9.48,1.27,9.86
-2.41,-9.47,1.32,9.86
-2.41,-9.47,1.29,9.86
-2.39,-9.47,1.29,9.85
-2.40,-9.45,1.29,9.83
-2.38,-9.44,1.31,9.83
-2.36,-9.43,1.32,9.82
-2.38,-9.41,1.22,9.78
-2.36,-9.41,1.29,9.79
-2.37,-9.40,1.34,9.79
-2.37,-9.43,1.32,9.81
-2.38,-9.40,1.25,9.77
-2.40,-9.40,1.30,9.78
-2.38,-9.42,1.24,9.80
-2.39,-9.43,1.23,9.80
-2.37,-9.45,1.20,9.82
-2.37,-9.42,1.24,9.80
-2.36,-9.43,1.33,9.81
-2.38,-9.43,1.35,9.82
-2.37,-9.39,1.31,9.77
-2.37,-9.38,1.26,9.76
-2.40,-9.43,1.28,9.82
-2.38,-9.42,1.29,9.80
-2.36,-9.39,1.29,9.77
-2.36,-9.45,1.34,9.83
-2.36,-9.43,1.29,9.81
-2.34,-9.46,1.26,9.82
-2.38,-9.45,1.29,9.83
-2.37,-9.47,1.28,9.85
-2.37,-9.47,1.26,9.84
-2.36,-9.45,1.28,9.83
-2.39,-9.48,1.28,9.86
-2.40,-9.49,1.29,9.87
-2.41,-9.46,1.29,9.84
-2.40,-9.45,1.30,9.83
-2.40,-9.45,1.28,9.84
-2.36,-9.42,1.30,9.80
-2.35,-9.42,1.28,9.79
-2.36,-9.43,1.30,9.81
-2.34,-9.42,1.29,9.79
-2.37,-9.45,1.28,9.82
-2.36,-9.41,1.30,9.79
-2.35,-9.43,1.31,9.81
-2.35,-9.45,1.29,9.82
-2.36,-9.45,1.28,9.83
-2.37,-9.46,1.30,9.84
-2.34,-9.48,1.28,9.84
-2.36,-9.46,1.27,9.83
-2.33,-9.44,1.26,9.80
-2.35,-9.42,1.27,9.80
-2.33,-9.46,1.30,9.83
-2.34,-9.44,1.30,9.81
-2.35,-9.44,1.30,9.82
-2.36,-9.47,1.31,9.85
-2.35,-9.45,1.30,9.82
-2.37,-9.45,1.29,9.82
-2.39,-9.44,1.29,9.83
-2.41,-9.46,1.27,9.85
-2.38,-9.44,1.27,9.82
-2.36,-9.44,1.25,9.82
-2.40,-9.45,1.34,9.84
-2.43,-9.46,1.37,9.86
-2.49,-9.44,1.40,9.87
-2.39,-9.40,1.36,9.79
-2.31,-9.33,1.23,9.69
-2.34,-9.49,1.15,9.84
-2.31,-9.51,1.20,9.86
-2.34,-9.45,1.16,9.80
-2.37,-9.45,1.46,9.85
-2.37,-9.40,1.45,9.80
-2.37,-9.35,1.36,9.74
-2.39,-9.42,1.29,9.80
-2.39,-9.45,1.24,9.83
-2.37,-9.45,1.20,9.82
-2.33,-9.46,1.22,9.82
-2.31,-9.48,1.21,9.83
-2.31,-9.50,1.17,9.84
-2.34,-9.49,1.14,9.84
-2.40,-9.51,1.18,9.88
-2.37,-9.51,1.22,9.88
-2.40,-9.51,1.33,9.90
-2.39,-9.47,1.29,9.86
-2.40,-9.51,1.34,9.90
-2.36,-9.46,1.27,9.83
-2.35,-9.46,1.31,9.83
-2.33,-9.40,1.31,9.78
-2.32,-9.43,1.27,9.79
-2.32,-9.40,1.27,9.76
-2.32,-9.42,1.26,9.78
-2.34,-9.42,1.27,9.79
-2.35,-9.43,1.25,9.80
-2.34,-9.43,1.22,9.79
-2.32,-9.44,1.19,9.79
-2.32,-9.43,1.17,9.78
-2.36,-9.46,1.19,9.82
-2.39,-9.51,1.27,9.88
-2.40,-9.52,1.31,9.91
-2.38,-9.47,1.28,9.85
-2.40,-9.44,1.30,9.83
-2.37,-9.47,1.27,9.85
-2.38,-9.44,1.31,9.82
-2.37,-9.47,1.33,9.85
-2.38,-9.45,1.35,9.84
-2.35,-9.45,1.22,9.82
-2.36,-9.44,1.28,9.82
-2.35,-9.44,1.27,9.81
-2.37,-9.42,1.26,9.79
-2.39,-9.45,1.26,9.82
-2.38,-9.44,1.27,9.82
-2.39,-9.47,1.29,9.85
-2.39,-9.47,1.29,9.85
-2.36,-9.44,1.28,9.82
-2.37,-9.46,1.28,9.83
-2.35,-9.45,1.27,9.82
-2.34,-9.44,1.27,9.81
-2.31,-9.44,1.24,9.80
-2.34,-9.45,1.27,9.82
-2.32,-9.44,1.26,9.80
-2.33,-9.45,1.25,9.82
-2.35,-9.46,1.25,9.82
-2.38,-9.45,1.26,9.82
-2.36,-9.47,1.25,9.84
-2.40,-9.45,1.30,9.84
-2.37,-9.44,1.27,9.82
-2.36,-9.45,1.27,9.82
-2.32,-9.43,1.11,9.78
-2.30,-9.47,1.35,9.84
-2.32,-9.46,1.29,9.82
-2.30,-9.42,1.23,9.78
-2.29,-9.44,1.25,9.79
-2.27,-9.43,1.24,9.78
-2.28,-9.44,1.27,9.79
-2.31,-9.42,1.25,9.78
-2.32,-9.43,1.23,9.79
-2.32,-9.46,1.21,9.81
-2.33,-9.46,1.18,9.81
-2.35,-9.45,1.15,9.81
-2.38,-9.49,1.25,9.87
-2.38,-9.46,1.31,9.84
-2.41,-9.48,1.45,9.89
-2.42,-9.51,1.42,9.91
-2.32,-9.37,1.17,9.73
-2.34,-9.48,1.14,9.83
-2.31,-9.59,1.22,9.93
-2.27,-9.46,1.07,9.79
-2.31,-9.41,1.58,9.81
-2.36,-9.42,1.46,9.82
-2.43,-9.41,1.28,9.80
-2.41,-9.43,1.23,9.81
-2.38,-9.44,1.17,9.80
-2.34,-9.51,1.19,9.86
-2.32,-9.46,1.17,9.81
-2.28,-9.47,1.18,9.81
-2.30,-9.49,1.15,9.83
-2.31,-9.49,1.04,9.83
-2.30,-9.54,1.18,9.89
-2.35,-9.53,1.26,9.90
-2.36,-9.45,1.05,9.79
-2.33,-9.47,1.50,9.87
-2.36,-9.41,1.31,9.79
-2.35,-9.40,1.25,9.78
-2.36,-9.41,1.27,9.79
-2.33,-9.41,1.22,9.77
-2.34,-9.42,1.19,9.78
-2.32,-9.45,1.21,9.81
-2.32,-9.45,1.21,9.80
-2.32,-9.45,1.22,9.81
-2.31,-9.45,1.24,9.81
-2.29,-9.48,1.27,9.84
-2.29,-9.50,1.23,9.85
-2.24,-9.45,1.12,9.77
-2.26,-9.50,1.16,9.83
-2.29,-9.51,1.26,9.86
-2.32,-9.45,1.25,9.81
-2.31,-9.44,1.20,9.79
-2.32,-9.45,1.20,9.80
-2.34,-9.46,1.24,9.83
-2.35,-9.41,1.22,9.78
-2.37,-9.42,1.17,9.78
-2.38,-9.48,1.16,9.85
-2.35,-9.48,1.18,9.83
-2.35,-9.46,1.26,9.83
-2.32,-9.46,1.18,9.82
-2.28,-9.47,1.23,9.82
-2.29,-9.49,1.18,9.83
-2.28,-9.47,1.17,9.81
-2.29,-9.50,1.18,9.84
-2.31,-9.45,1.17,9.80
-2.32,-9.45,1.20,9.81
-2.32,-9.45,1.23,9.81
-2.36,-9.45,1.19,9.82
-2.32,-9.46,1.26,9.82
-2.36,-9.48,1.21,9.84
-2.34,-9.51,1.20,9.86
-2.34,-9.47,1.22,9.83
-2.32,-9.47,1.20,9.83
-2.31,-9.47,1.19,9.82
-2.26,-9.44,1.18,9.78
-2.27,-9.43,1.20,9.78
-2.28,-9.45,1.23,9.79
-2.27,-9.43,1.21,9.77
-2.28,-9.40,1.21,9.75
-2.31,-9.45,1.20,9.80
-2.29,-9.46,1.20,9.80
-2.31,-9.48,1.20,9.83
-2.32,-9.46,1.15,9.81
-2.31,-9.46,1.15,9.81
-2.37,-9.49,1.16,9.85
-2.34,-9.50,1.26,9.87
-2.36,-9.46,1.25,9.83
-2.38,-9.46,1.28,9.84
-2.40,-9.52,1.43,9.92
-2.33,-9.45,1.17,9.80
-2.25,-9.41,1.06,9.74
-2.17,-9.49,1.21,9.81
-2.16,-9.40,1.20,9.72
-2.19,-9.41,1.20,9.73
-2.38,-9.45,1.26,9.83
-2.42,-9.36,1.31,9.76
-2.41,-9.35,1.40,9.75
-2.42,-9.41,1.09,9.78
-2.39,-9.48,1.16,9.85
-2.38,-9.51,1.12,9.87
-2.29,-9.51,1.14,9.85
-2.27,-9.47,1.18,9.81
-2.30,-9.48,1.17,9.82
-2.28,-9.50,1.17,9.84
-2.30,-9.51,1.19,9.85
-2.33,-9.49,1.21,9.85
-2.32,-9.46,1.19,9.81
-2.37,-9.43,1.21,9.80
-2.35,-9.45,1.21,9.81
-2.34,-9.41,1.19,9.77
-2.34,-9.41,1.18,9.77
-2.33,-9.42,1.19,9.77
-2.35,-9.45,1.19,9.81
-2.35,-9.45,1.20,9.81
-2.34,-9.46,1.22,9.82
-2.37,-9.48,1.22,9.84
-2.37,-9.48,1.23,9.84
-2.34,-9.46,1.17,9.82
-2.28,-9.45,1.17,9.79
-2.29,-9.46,1.11,9.79
-2.34,-9.51,1.24,9.87
-2.32,-9.44,1.22,9.80
-2.31,-9.41,1.23,9.77
-2.32,-9.45,1.21,9.81
-2.32,-9.46,1.25,9.82
-2.34,-9.42,1.26,9.79
-2.27,-9.45,1.38,9.81
-2.30,-9.45,1.05,9.78
-2.32,-9.49,1.17,9.84
-2.37,-9.48,1.23,9.85
-2.37,-9.48,1.23,9.85
-2.33,-9.46,1.23,9.82
-2.36,-9.45,1.22,9.82
-2.36,-9.48,1.21,9.84
-2.38,-9.49,1.22,9.85
-2.31,-9.46,1.22,9.81
-2.33,-9.47,1.21,9.83
-2.32,-9.48,1.21,9.83
-2.31,-9.45,1.21,9.80
-2.36,-9.47,1.21,9.83
-2.36,-9.49,1.23,9.85
-2.35,-9.47,1.25,9.83
-2.34,-9.46,1.25,9.82
-2.34,-9.45,1.23,9.82
-2.35,-9.44,1.20,9.80
-2.36,-9.42,1.16,9.78
-2.37,-9.48,1.27,9.85
-2.33,-9.45,1.25,9.81
-2.35,-9.45,1.24,9.81
-2.34,-9.42,1.24,9.79
-2.34,-9.42,1.20,9.78
-2.35,-9.43,1.20,9.80
-2.36,-9.44,1.06,9.78
-2.35,-9.43,1.22,9.80
-2.33,-9.42,1.14,9.77
-2.32,-9.44,1.27,9.81
-2.40,-9.46,1.35,9.85
-2.40,-9.47,1.51,9.89
-2.36,-9.44,1.31,9.81
-2.24,-9.38,0.96,9.70
-2.26,-9.52,1.10,9.84
-2.36,-9.45,0.73,9.76
-2.26,-9.32,1.58,9.72
-2.30,-9.40,1.40,9.77
-2.36,-9.43,1.35,9.82
-2.40,-9.40,1.28,9.78
-2.42,-9.40,1.19,9.78
-2.38,-9.52,1.22,9.89
-2.36,-9.51,1.17,9.87
-2.32,-9.51,1.19,9.86
-2.30,-9.49,1.19,9.84
-2.31,-9.55,1.15,9.90
-2.35,-9.55,1.18,9.90
-2.39,-9.55,1.12,9.91
-2.33,-9.55,1.34,9.93
-2.35,-9.52,1.26,9.89
-2.33,-9.46,1.19,9.82
-2.36,-9.42,1.31,9.80
-2.35,-9.40,1.26,9.77
-2.33,-9.42,1.24,9.78
-2.32,-9.40,1.22,9.75
-2.35,-9.37,1.23,9.74
-2.31,-9.40,1.21,9.76
-2.30,-9.41,1.17,9.76
-2.33,-9.44,1.21,9.79
-2.34,-9.46,1.21,9.82
-2.36,-9.46,1.21,9.82
-2.34,-9.48,1.25,9.85
-2.33,-9.43,1.15,9.78
-2.32,-9.44,1.17,9.79
-2.33,-9.47,1.21,9.82
-2.36,-9.49,1.28,9.86
-2.34,-9.47,1.25,9.83
-2.37,-9.45,1.23,9.82
-2.38,-9.45,1.29,9.83
-2.38,-9.42,1.31,9.81
-2.37,-9.43,1.10,9.78
-2.35,-9.44,1.23,9.80
-2.35,-9.45,1.21,9.82
-2.36,-9.46,1.20,9.82
-2.34,-9.45,1.24,9.82
-2.30,-9.47,1.21,9.82
-2.32,-9.49,1.24,9.85
-2.33,-9.47,1.24,9.83
-2.35,-9.48,1.24,9.85
-2.35,-9.45,1.23,9.81
-2.34,-9.45,1.22,9.81
-2.33,-9.46,1.22,9.81
-2.33,-9.45,1.22,9.81
-2.35,-9.46,1.24,9.82
-2.32,-9.46,1.24,9.82
-2.33,-9.47,1.23,9.83
-2.36,-9.47,1.23,9.84
-2.36,-9.48,1.26,9.85
-2.32,-9.49,1.23,9.85
-2.34,-9.48,1.23,9.84
-2.33,-9.48,1.20,9.83
-2.33,-9.47,1.19,9.82
-2.31,-9.46,1.23,9.81
-2.33,-9.45,1.26,9.82
-2.33,-9.45,1.25,9.81
-2.36,-9.43,1.23,9.80
-2.32,-9.41,1.22,9.77
-2.31,-9.43,1.18,9.79
-2.31,-9.39,1.18,9.74
-2.34,-9.43,1.20,9.79
-2.40,-9.43,1.32,9.82
-2.42,-9.47,1.44,9.88
-2.42,-9.41,1.27,9.80
-2.27,-9.37,1.05,9.70
-2.28,-9.50,1.10,9.84
-2.29,-9.56,1.13,9.89
-2.29,-9.45,1.19,9.79
-2.30,-9.46,1.40,9.84
-2.32,-9.42,1.38,9.80
-2.35,-9.41,1.31,9.79
-2.35,-9.43,1.24,9.79
-2.32,-9.45,1.20,9.81
-2.34,-9.45,1.05,9.80
-2.31,-9.49,1.05,9.82
-2.29,-9.50,1.17,9.84
-2.33,-9.50,1.14,9.84
-2.34,-9.51,1.17,9.86
-2.38,-9.53,1.20,9.89
-2.38,-9.51,1.26,9.89
-2.40,-9.52,1.26,9.90
-2.36,-9.51,1.27,9.88
-2.39,-9.49,1.29,9.87
-2.40,-9.48,1.26,9.86
-2.39,-9.44,1.27,9.82
-2.39,-9.43,1.27,9.81
-2.36,-9.41,1.26,9.78
-2.35,-9.40,1.26,9.77
-2.34,-9.42,1.23,9.78
-2.32,-9.41,1.25,9.77
-2.33,-9.44,1.22,9.80
-2.33,-9.43,1.23,9.79
-2.33,-9.42,1.22,9.78
-2.32,-9.45,1.37,9.83
-2.32,-9.44,1.12,9.79
-2.26,-9.42,1.25,9.77
-2.25,-9.46,1.21,9.80
-2.28,-9.50,1.33,9.86
-2.28,-9.45,1.26,9.80
-2.28,-9.41,1.23,9.76
-2.35,-9.45,1.20,9.81
-2.33,-9.49,1.23,9.85
-2.38,-9.45,1.34,9.84
-2.36,-9.44,1.24,9.81
-2.35,-9.45,1.24,9.81
-2.35,-9.45,1.26,9.82
-2.34,-9.47,1.22,9.83
-2.36,-9.46,1.25,9.82
-2.38,-9.49,1.27,9.86
-2.34,-9.45,1.25,9.81
-2.36,-9.43,1.22,9.80
-2.40,-9.46,1.25,9.84
-2.39,-9.43,1.30,9.82
-2.37,-9.42,1.26,9.79
-2.38,-9.43,1.24,9.80
-2.36,-9.45,1.27,9.82
-2.43,-9.42,1.21,9.80
-2.41,-9.41,1.22,9.79
-2.43,-9.42,1.24,9.81
-2.46,-9.43,1.26,9.82
-2.42,-9.43,1.26,9.82
-2.41,-9.40,1.26,9.79
-2.37,-9.43,1.27,9.81
-2.37,-9.42,1.27,9.80
-2.33,-9.42,1.27,9.79
-2.33,-9.44,1.28,9.80
-2.31,-9.45,1.28,9.81
-2.29,-9.44,1.26,9.80
-2.33,-9.43,1.23,9.80
-2.32,-9.44,1.22,9.80
-2.33,-9.43,1.20,9.79
-2.37,-9.44,1.21,9.81
-2.46,-9.45,1.34,9.86
-2.49,-9.50,1.58,9.95
-2.44,-9.42,1.35,9.83
-2.34,-9.32,1.23,9.69
-2.29,-9.44,1.14,9.78
-2.31,-9.56,1.14,9.90
-2.31,-9.44,1.01,9.77
-2.40,-9.45,1.44,9.86
-2.39,-9.39,1.48,9.81
-2.39,-9.35,1.42,9.75
-2.44,-9.35,1.29,9.74
-2.42,-9.41,1.24,9.80
-2.43,-9.43,1.21,9.81
-2.40,-9.41,1.20,9.79
-2.33,-9.45,1.20,9.81
-2.34,-9.43,1.18,9.78
-2.34,-9.45,1.07,9.80
-2.34,-9.52,1.20,9.88
-2.35,-9.50,1.13,9.85
-2.37,-9.52,1.32,9.90
-2.35,-9.47,1.24,9.84
-2.36,-9.48,1.25,9.85
-2.39,-9.47,1.28,9.85
-2.35,-9.48,1.23,9.85
-2.38,-9.45,1.26,9.83
-2.37,-9.44,1.23,9.81
-2.34,-9.41,1.27,9.78
-2.35,-9.41,1.25,9.78
-2.34,-9.40,1.26,9.76
-2.35,-9.45,1.23,9.82
-2.38,-9.42,1.21,9.79
-2.41,-9.44,1.22,9.82
-2.42,-9.43,1.26,9.82
-2.43,-9.45,1.21,9.83
-2.45,-9.41,1.10,9.78
-2.43,-9.44,1.17,9.82
-2.44,-9.49,1.39,9.90
-2.39,-9.44,1.29,9.82
-2.37,-9.40,1.24,9.77
-2.40,-9.42,1.22,9.80
-2.39,-9.44,1.25,9.82
-2.37,-9.41,1.29,9.79
-2.36,-9.39,1.21,9.76
-2.35,-9.38,1.24,9.75
-2.36,-9.40,1.25,9.77
-2.32,-9.44,1.24,9.80
-2.29,-9.45,1.25,9.80
-2.28,-9.44,1.25,9.79
-2.26,-9.47,1.22,9.81
-2.30,-9.48,1.22,9.83
-2.34,-9.49,1.19,9.85
-2.34,-9.50,1.23,9.86
-2.38,-9.47,1.24,9.85
-2.39,-9.49,1.22,9.87
-2.45,-9.45,1.24,9.84
-2.38,-9.48,1.26,9.85
-2.37,-9.48,1.27,9.85
-2.32,-9.48,1.24,9.84
-2.34,-9.45,1.24,9.81
-2.35,-9.45,1.22,9.82
-2.32,-9.46,1.24,9.82
-2.33,-9.43,1.22,9.79
-2.34,-9.44,1.20,9.80
-2.37,-9.42,1.26,9.79
-2.37,-9.45,1.28,9.83
-2.37,-9.43,1.26,9.80
-2.37,-9.46,1.27,9.84
-2.39,-9.43,1.25,9.81
-2.37,-9.46,1.22,9.83
-2.38,-9.46,1.21,9.83
-2.37,-9.46,1.17,9.82
-2.37,-9.45,1.20,9.81
-2.42,-9.45,1.32,9.84
-2.46,-9.45,1.40,9.87
-2.46,-9.44,1.35,9.85
-2.26,-9.31,1.12,9.64
-2.23,-9.36,1.04,9.68
-2.28,-9.53,1.15,9.86
-2.24,-9.44,1.06,9.76
-2.30,-9.38,0.84,9.69
-2.29,-9.50,1.58,9.90
-2.30,-9.37,1.34,9.74
-2.35,-9.36,1.30,9.74
-2.31,-9.40,1.39,9.78
-2.34,-9.43,1.02,9.77
-2.33,-9.45,1.16,9.80
-2.31,-9.48,1.11,9.82
-2.35,-9.52,1.19,9.87
-2.36,-9.54,1.15,9.89
-2.40,-9.54,1.21,9.92
-2.40,-9.53,1.28,9.91
-2.42,-9.51,1.27,9.90
-2.41,-9.52,1.27,9.90
-2.44,-9.48,1.26,9.87
-2.39,-9.47,1.24,9.85
-2.38,-9.43,1.25,9.80
-2.38,-9.41,1.25,9.79
-2.38,-9.39,1.24,9.76
-2.36,-9.37,1.25,9.74
-2.36,-9.39,1.24,9.76
-2.37,-9.36,1.24,9.74
-2.36,-9.39,1.21,9.76
-2.37,-9.40,1.21,9.77
-2.38,-9.42,1.22,9.79
-2.37,-9.45,1.24,9.82
-2.36,-9.42,1.16,9.79
-2.34,-9.43,1.19,9.78
-2.35,-9.48,1.23,9.84
-2.37,-9.47,1.10,9.82
-2.29,-9.45,1.31,9.81
-2.32,-9.42,1.19,9.77
-2.32,-9.48,1.20,9.84
-2.35,-9.45,1.22,9.81
-2.36,-9.46,1.24,9.83
-2.37,-9.44,1.24,9.81
-2.37,-9.44,1.21,9.81
-2.35,-9.43,1.21,9.80
-2.37,-9.44,1.23,9.81
-2.37,-9.46,1.22,9.83
-2.35,-9.49,1.23,9.85
-2.38,-9.49,1.23,9.86
-2.39,-9.49,1.26,9.87
-2.38,-9.49,1.24,9.86
-2.39,-9.46,1.24,9.84
-2.39,-9.46,1.23,9.83
-2.38,-9.45,1.22,9.82
-2.36,-9.43,1.24,9.80
-2.38,-9.44,1.21,9.81
-2.35,-9.46,1.21,9.82
-2.35,-9.42,1.23,9.79
-2.38,-9.45,1.23,9.83
-2.40,-9.44,1.22,9.82
-2.41,-9.43,1.22,9.80
-2.43,-9.41,1.07,9.77
-2.41,-9.42,1.22,9.80
-2.37,-9.43,1.12,9.79
-2.30,-9.45,1.27,9.81
-2.36,-9.43,1.15,9.79
-2.31,-9.42,1.17,9.77
-2.34,-9.46,1.27,9.82
-2.33,-9.43,1.22,9.79
-2.36,-9.47,1.28,9.84
-2.38,-9.46,1.21,9.83
-2.38,-9.44,1.13,9.80
-2.38,-9.44,1.12,9.80
-2.37,-9.48,1.16,9.84
-2.41,-9.48,1.19,9.85
-2.45,-9.49,1.44,9.91
-2.45,-9.45,1.33,9.85
-2.37,-9.41,1.22,9.78
-2.24,-9.41,1.06,9.73
-2.35,-9.55,1.11,9.90
-2.34,-9.54,1.10,9.88
-2.36,-9.44,1.17,9.80
-2.36,-9.47,1.41,9.86
-2.36,-9.46,1.45,9.86
-2.40,-9.38,1.30,9.77
-2.36,-9.41,1.16,9.77
-2.34,-9.43,1.13,9.78
-2.34,-9.45,1.15,9.81
-2.34,-9.47,1.13,9.82
-2.32,-9.45,1.14,9.80
-2.34,-9.51,1.14,9.85
-2.32,-9.52,1.17,9.87
-2.33,-9.53,1.19,9.88
-2.36,-9.53,1.24,9.90
-2.36,-9.48,1.23,9.85
-2.38,-9.50,1.25,9.88
-2.37,-9.50,1.24,9.87
-2.36,-9.46,1.23,9.83
-2.35,-9.46,1.24,9.83
-2.34,-9.45,1.25,9.82
-2.35,-9.44,1.52,9.85
-2.43,-9.40,1.16,9.77
-2.35,-9.40,1.20,9.77
-2.37,-9.44,1.22,9.81
-2.38,-9.41,1.19,9.78
-2.37,-9.42,1.22,9.79
-2.37,-9.43,1.20,9.80
-2.37,-9.44,1.15,9.80
-2.36,-9.43,1.20,9.80
-2.34,-9.45,1.23,9.82
-2.39,-9.46,1.32,9.85
-2.37,-9.40,1.18,9.76
-2.37,-9.43,1.18,9.79
-2.41,-9.44,1.23,9.82
-2.41,-9.42,1.22,9.80
-2.42,-9.43,1.20,9.80
-2.41,-9.44,1.22,9.82
-2.41,-9.42,1.21,9.80
-2.39,-9.44,1.21,9.81
-2.37,-9.43,1.26,9.81
-2.40,-9.43,1.23,9.81
-2.39,-9.46,1.25,9.84
-2.38,-9.48,1.23,9.85
-2.37,-9.48,1.24,9.85
-2.38,-9.47,1.24,9.85
-2.36,-9.48,1.23,9.85
-2.34,-9.47,1.21,9.83
-2.33,-9.47,1.22,9.83
-2.34,-9.45,1.23,9.82
-2.35,-9.43,1.22,9.80
-2.38,-9.41,1.22,9.78
-2.36,-9.42,1.24,9.79
-2.38,-9.42,1.23,9.79
-2.37,-9.42,1.23,9.80
-2.37,-9.44,1.27,9.82
-2.36,-9.42,1.25,9.79
-2.36,-9.44,1.25,9.81
-2.37,-9.42,1.22,9.79
-2.37,-9.43,1.22,9.80
-2.36,-9.41,1.20,9.77
-2.35,-9.45,1.22,9.81
-2.36,-9.45,1.21,9.82
-2.36,-9.44,1.23,9.81
-2.37,-9.44,1.28,9.82
-2.38,-9.43,1.26,9.81
-2.37,-9.42,1.25,9.80
-2.36,-9.45,1.23,9.81
-2.37,-9.44,1.24,9.81
-2.36,-9.47,1.23,9.84
-2.32,-9.45,1.18,9.81
-2.33,-9.44,1.17,9.79
-2.35,-9.50,1.28,9.87
-2.43,-9.50,1.41,9.90
-2.46,-9.48,1.37,9.89
-2.36,-9.38,1.23,9.75
-2.32,-9.45,1.16,9.80
-2.36,-9.53,1.23,9.89
-2.34,-9.47,1.10,9.82
-2.41,-9.42,1.29,9.81
-2.40,-9.44,1.41,9.85
-2.43,-9.38,1.33,9.78
-2.43,-9.40,1.27,9.79
-2.41,-9.40,1.22,9.78
-2.39,-9.43,1.17,9.79
-2.35,-9.43,1.18,9.79
-2.34,-9.44,1.18,9.79
-2.32,-9.45,1.19,9.80
-2.30,-9.50,1.15,9.84
-2.33,-9.50,1.17,9.85
-2.38,-9.52,1.21,9.89
-2.40,-9.52,1.24,9.89
-2.38,-9.51,1.24,9.88
-2.42,-9.48,1.26,9.87
-2.40,-9.45,1.06,9.81
-2.43,-9.49,1.38,9.90
-2.39,-9.45,1.24,9.83
-2.36,-9.42,1.25,9.80
-2.34,-9.41,1.25,9.78
-2.35,-9.43,1.23,9.80
-2.32,-9.44,1.25,9.80
-2.33,-9.43,1.21,9.79
-2.37,-9.44,1.23,9.81
-2.37,-9.42,1.18,9.78
-2.38,-9.43,1.16,9.79
-2.41,-9.44,1.19,9.81
-2.39,-9.44,1.16,9.80
-2.40,-9.49,1.26,9.87
-2.37,-9.46,1.27,9.83
-2.37,-9.43,1.24,9.80
-2.39,-9.44,1.24,9.82
-2.43,-9.44,1.23,9.82
-2.38,-9.44,1.22,9.81
-2.40,-9.43,1.23,9.80
-2.39,-9.44,1.22,9.82
-2.38,-9.47,1.23,9.84
-2.39,-9.47,1.19,9.84
-2.37,-9.48,1.19,9.85
-2.40,-9.46,1.21,9.84
-2.39,-9.48,1.22,9.86
-2.37,-9.47,1.21,9.83
-2.38,-9.47,1.22,9.84
-2.39,-9.46,1.16,9.82
-2.37,-9.48,1.26,9.85
-2.36,-9.47,1.19,9.83
-2.34,-9.44,1.21,9.80
-2.37,-9.45,1.23,9.82
-2.37,-9.44,1.23,9.81
-2.35,-9.42,1.18,9.78
-2.36,-9.44,1.20,9.81
-2.39,-9.44,1.20,9.81
-2.38,-9.48,1.21,9.85
-2.40,-9.47,1.20,9.84
-2.41,-9.46,1.22,9.84
-2.39,-9.48,1.21,9.85
-2.38,-9.46,1.21,9.82
-2.38,-9.44,1.21,9.81
-2.39,-9.47,1.20,9.84
-2.37,-9.46,1.21,9.83
-2.41,-9.44,1.20,9.81
-2.36,-9.43,1.20,9.79
-2.35,-9.41,1.20,9.77
-2.38,-9.43,1.21,9.80
-2.35,-9.41,1.21,9.78
-2.38,-9.41,1.19,9.78
-2.38,-9.42,1.20,9.79
-2.35,-9.44,1.19,9.80
-2.37,-9.42,1.16,9.79
-2.34,-9.44,1.16,9.80
-2.44,-9.43,1.03,9.80
-2.35,-9.48,1.37,9.86
-2.42,-9.47,1.39,9.87
-2.42,-9.53,1.34,9.92
-2.34,-9.33,1.19,9.69
-2.31,-9.41,1.03,9.75
-2.34,-9.58,1.13,9.93
-2.33,-9.52,1.04,9.85
-2.33,-9.40,1.33,9.78
-2.37,-9.44,1.43,9.84
-2.47,-9.39,1.35,9.80
-2.46,-9.41,1.28,9.81
-2.44,-9.41,1.18,9.79
-2.43,-9.45,1.15,9.82
-2.38,-9.47,1.17,9.84
-2.36,-9.47,1.15,9.83
-2.33,-9.48,1.11,9.82
-2.36,-9.51,1.11,9.86
-2.35,-9.52,1.13,9.87
-2.35,-9.53,0.98,9.87
-2.44,-9.49,1.17,9.87
-2.38,-9.51,1.28,9.89
-2.41,-9.46,1.22,9.84
-2.38,-9.43,1.18,9.80
-2.37,-9.43,1.21,9.80
-2.40,-9.41,1.21,9.78
-2.35,-9.41,1.21,9.78
-2.37,-9.38,1.19,9.75
-2.40,-9.40,1.17,9.77
-2.35,-9.43,1.21,9.79
-2.33,-9.42,1.18,9.78
-2.38,-9.43,1.18,9.80
-2.37,-9.49,1.17,9.85
-2.33,-9.46,1.10,9.81
-2.34,-9.44,1.12,9.79
-2.36,-9.49,1.19,9.85
-2.37,-9.50,1.23,9.87
-2.35,-9.39,1.15,9.75
-2.32,-9.46,1.18,9.81
-2.34,-9.47,1.29,9.84
-2.32,-9.42,1.18,9.77
-2.36,-9.44,1.14,9.80
-2.38,-9.48,1.13,9.84
-2.40,-9.48,1.16,9.85
-2.44,-9.48,1.18,9.86
-2.40,-9.50,1.15,9.87
-2.37,-9.49,1.16,9.85
-2.36,-9.49,1.16,9.84
-2.32,-9.48,1.17,9.83
-2.36,-9.47,1.19,9.83
-2.33,-9.44,1.15,9.80
-2.32,-9.45,1.13,9.80
-2.33,-9.43,1.19,9.78
-2.32,-9.47,1.15,9.82
-2.34,-9.44,1.16,9.80
-2.33,-9.42,1.17,9.77
-2.36,-9.45,1.18,9.81
-2.36,-9.46,1.18,9.82
-2.35,-9.44,1.18,9.80
-2.37,-9.43,1.18,9.80
-2.36,-9.47,1.16,9.83
-2.36,-9.47,1.17,9.83
-2.36,-9.47,1.17,9.83
-2.30,-9.47,1.18,9.82
-2.35,-9.46,1.17,9.82
-2.36,-9.45,1.17,9.81
-2.38,-9.45,1.18,9.82
-2.41,-9.44,1.12,9.80
-2.35,-9.45,1.22,9.81
-2.35,-9.44,1.20,9.80
-2.39,-9.42,1.18,9.79
-2.37,-9.44,1.19,9.80
-2.37,-9.44,1.19,9.81
-2.34,-9.42,1.19,9.78
-2.35,-9.44,1.18,9.80
-2.33,-9.43,1.13,9.78
-2.40,-9.45,1.23,9.83
-2.39,-9.44,1.21,9.81
-2.40,-9.44,1.20,9.82
-2.40,-9.50,1.37,9.89
-2.44,-9.54,1.37,9.94
-2.33,-9.36,0.97,9.69
-2.29,-9.52,1.12,9.85
-2.27,-9.55,1.17,9.88
-2.22,-9.34,1.15,9.67
-2.33,-9.42,1.23,9.78
-2.40,-9.47,1.22,9.85
-2.44,-9.39,1.25,9.78
-2.42,-9.42,1.18,9.80
-2.44,-9.49,1.17,9.87
-2.39,-9.50,1.15,9.86
-2.36,-9.49,1.15,9.85
-2.33,-9.50,1.12,9.84
-2.33,-9.53,1.13,9.87
-2.33,-9.55,1.12,9.90
-2.38,-9.53,0.93,9.86
-2.36,-9.48,1.32,9.86
-2.36,-9.49,1.20,9.85
-2.35,-9.41,1.23,9.78
-2.35,-9.43,1.18,9.79
-2.35,-9.40,1.20,9.77
-2.36,-9.41,1.16,9.77
-2.35,-9.38,1.16,9.74
-2.34,-9.41,1.16,9.76
-2.32,-9.44,1.17,9.79
-2.32,-9.42,1.15,9.77
-2.32,-9.44,1.16,9.79
-2.38,-9.48,1.15,9.84
-2.39,-9.47,1.22,9.85
-2.37,-9.48,1.15,9.84
-2.32,-9.47,1.18,9.82
-2.35,-9.48,1.07,9.83
-2.41,-9.49,1.21,9.86
-2.38,-9.44,1.23,9.81
-2.41,-9.44,1.19,9.81
-2.38,-9.45,1.20,9.82
-2.40,-9.45,1.25,9.83
-2.38,-9.39,1.20,9.76
-2.38,-9.40,1.20,9.77
-2.34,-9.44,1.08,9.78
-2.37,-9.46,1.13,9.82
-2.34,-9.43,1.16,9.79
-2.36,-9.43,1.17,9.79
-2.36,-9.44,1.18,9.80
-2.37,-9.43,1.17,9.80
-2.37,-9.47,1.18,9.84
-2.37,-9.47,1.20,9.84
-2.37,-9.46,1.20,9.83
-2.33,-9.44,1.16,9.79
-2.33,-9.45,1.17,9.80
-2.37,-9.48,1.18,9.84
-2.37,-9.47,1.17,9.83
-2.37,-9.47,1.16,9.83
-2.37,-9.44,1.18,9.80
-2.36,-9.47,1.16,9.83
-2.36,-9.46,1.18,9.82
-2.37,-9.48,1.18,9.84
-2.35,-9.44,1.16,9.80
-2.38,-9.45,1.05,9.80
-2.36,-9.48,1.25,9.85
-2.35,-9.43,1.09,9.78
-2.33,-9.44,1.16,9.80
-2.34,-9.46,1.20,9.82
-2.36,-9.43,1.24,9.80
-2.39,-9.43,1.18,9.80
-2.35,-9.46,1.19,9.81
-2.37,-9.42,1.14,9.78
-2.35,-9.45,1.14,9.81
-2.35,-9.43,1.04,9.77
-2.34,-9.43,1.22,9.79
-2.35,-9.46,1.17,9.82
-2.38,-9.45,1.25,9.82
-2.41,-9.48,1.38,9.88
-2.45,-9.49,1.36,9.89
-2.33,-9.41,1.10,9.76
-2.30,-9.50,1.12,9.84
-2.30,-9.60,1.15,9.94
-2.24,-9.42,1.16,9.75
-2.29,-9.38,1.27,9.74
-2.39,-9.43,1.26,9.81
-2.40,-9.44,1.27,9.83
-2.43,-9.39,1.18,9.77
-2.40,-9.43,1.13,9.79
-2.40,-9.48,1.13,9.84
-2.38,-9.47,1.14,9.83
-2.34,-9.50,1.15,9.85
-2.34,-9.52,1.14,9.87
-2.32,-9.50,1.13,9.85
-2.34,-9.52,1.15,9.87
-2.36,-9.54,1.18,9.89
-2.36,-9.52,1.21,9.88
-2.39,-9.46,1.17,9.83
-2.38,-9.47,1.39,9.86
-2.37,-9.45,1.24,9.82
-2.35,-9.43,1.18,9.79
-2.38,-9.41,1.18,9.78
-2.35,-9.40,1.15,9.76
-2.37,-9.43,1.18,9.80
-2.36,-9.46,1.17,9.82
-2.37,-9.44,1.17,9.80
-2.38,-9.45,1.19,9.82
-2.38,-9.49,1.19,9.85
-2.39,-9.49,1.19,9.85
-2.35,-9.51,1.20,9.87
-2.35,-9.42,1.13,9.78
-2.31,-9.43,1.11,9.77
-2.32,-9.48,1.19,9.83
-2.35,-9.41,1.23,9.77
-2.33,-9.40,1.21,9.76
-2.40,-9.45,1.23,9.83
-2.41,-9.45,1.24,9.83
-2.38,-9.43,1.19,9.79
-2.39,-9.44,1.18,9.81
-2.38,-9.47,1.17,9.84
-2.38,-9.47,1.15,9.83
-2.40,-9.45,1.16,9.82
-2.37,-9.46,1.19,9.82
-2.36,-9.49,1.18,9.85
-2.37,-9.46,1.22,9.83
-2.36,-9.48,1.20,9.84
-2.35,-9.49,1.18,9.84
-2.35,-9.49,1.18,9.85
-2.34,-9.48,1.18,9.84
-2.34,-9.48,1.18,9.84
-2.32,-9.47,1.20,9.82
-2.31,-9.46,1.18,9.81
-2.32,-9.47,1.20,9.82
-2.33,-9.46,1.19,9.81
-2.34,-9.46,1.20,9.82
-2.37,-9.46,1.20,9.83
-2.35,-9.45,1.21,9.81
-2.37,-9.47,1.20,9.83
-2.34,-9.44,1.19,9.80
-2.36,-9.46,1.20,9.82
-2.38,-9.43,1.21,9.80
-2.33,-9.44,1.22,9.80
-2.34,-9.44,1.23,9.80
-2.38,-9.42,1.23,9.79
-2.33,-9.44,1.44,9.83
-2.36,-9.43,1.06,9.77
-2.36,-9.42,1.15,9.78
-2.36,-9.42,1.22,9.79
-2.40,-9.44,1.26,9.82
-2.40,-9.44,1.31,9.83
-2.45,-9.44,1.37,9.85
-2.33,-9.38,1.18,9.74
-2.26,-9.37,1.04,9.69
-2.29,-9.55,1.20,9.89
-2.30,-9.50,1.10,9.83
-2.30,-9.38,1.21,9.74
-2.36,-9.43,1.41,9.83
-2.39,-9.40,1.32,9.79
-2.43,-9.42,1.34,9.82
-2.34,-9.46,1.56,9.86
-2.37,-9.50,1.03,9.84
-2.38,-9.47,1.14,9.83
-2.34,-9.43,1.14,9.78
-2.33,-9.46,1.12,9.81
-2.34,-9.47,1.15,9.82
-2.35,-9.51,1.16,9.86
-2.38,-9.53,1.20,9.90
-2.37,-9.49,1.21,9.86
-2.37,-9.49,1.24,9.86
-2.38,-9.48,1.23,9.85
-2.37,-9.46,1.22,9.82
-2.36,-9.45,1.22,9.82
-2.38,-9.42,1.22,9.80
-2.38,-9.42,1.24,9.79
-2.38,-9.39,1.23,9.77
-2.37,-9.40,1.22,9.77
-2.35,-9.44,1.22,9.81
-2.38,-9.46,1.21,9.83
-2.39,-9.44,1.18,9.81
-2.38,-9.44,1.20,9.81
-2.40,-9.47,1.19,9.84
-2.37,-9.45,1.27,9.83
-2.35,-9.38,0.96,9.72
-2.37,-9.42,1.13,9.78
-2.38,-9.45,1.22,9.82
-2.38,-9.47,1.28,9.85
-2.38,-9.41,1.29,9.80
-2.40,-9.42,1.26,9.80
-2.38,-9.40,1.22,9.78
-2.34,-9.44,1.36,9.82
-2.41,-9.42,1.14,9.79
-2.39,-9.44,1.19,9.81
-2.36,-9.46,1.19,9.82
-2.37,-9.45,1.18,9.81
-2.35,-9.49,1.21,9.85
-2.36,-9.46,1.22,9.83
-2.37,-9.47,1.21,9.83
-2.37,-9.45,1.24,9.82
-2.39,-9.45,1.18,9.82
-2.36,-9.47,1.19,9.83
-2.36,-9.48,1.22,9.84
-2.35,-9.45,1.21,9.81
-2.33,-9.45,1.18,9.80
-2.31,-9.45,1.24,9.81
-2.31,-9.44,1.19,9.79
-2.31,-9.47,1.22,9.82
-2.37,-9.46,1.22,9.82
-2.39,-9.44,1.23,9.82
-2.41,-9.48,1.26,9.86
-2.42,-9.46,1.18,9.83
-2.40,-9.48,1.19,9.85
-2.36,-9.46,1.19,9.82
-2.36,-9.46,1.25,9.82
-2.36,-9.44,1.25,9.81
-2.32,-9.43,1.21,9.79
-2.35,-9.43,1.22,9.80
-2.36,-9.42,1.20,9.79
-2.32,-9.41,1.13,9.76
-2.35,-9.42,1.17,9.78
-2.37,-9.45,1.22,9.82
-2.43,-9.43,1.36,9.83
-2.46,-9.45,1.37,9.86
-2.39,-9.38,1.26,9.76
-2.28,-9.36,1.05,9.69
-2.29,-9.53,1.17,9.87
-2.29,-9.53,1.08,9.86
-2.35,-9.43,1.17,9.79
-2.38,-9.48,1.43,9.88
-2.40,-9.42,1.37,9.82
-2.40,-9.34,1.33,9.73
-2.41,-9.34,1.13,9.71
-2.39,-9.46,1.14,9.82
-2.39,-9.47,1.12,9.84
-2.39,-9.47,1.15,9.83
-2.37,-9.48,1.14,9.83
-2.32,-9.50,1.14,9.85
-2.36,-9.52,1.16,9.88
-2.35,-9.47,1.18,9.83
-2.37,-9.52,1.22,9.88
-2.37,-9.49,1.23,9.86
-2.37,-9.49,1.20,9.85
-2.39,-9.47,1.26,9.84
-2.36,-9.46,1.22,9.82
-2.38,-9.47,1.19,9.84
-2.35,-9.45,1.22,9.81
-2.37,-9.42,1.21,9.79
-2.33,-9.43,1.20,9.79
-2.36,-9.41,1.21,9.78
-2.36,-9.42,1.20,9.79
-2.38,-9.44,1.20,9.81
-2.37,-9.42,1.20,9.79
-2.36,-9.43,1.21,9.80
-2.37,-9.43,1.24,9.80
-2.37,-9.40,1.16,9.76
-2.39,-9.41,1.19,9.78
-2.38,-9.46,1.27,9.84
-2.38,-9.45,1.28,9.83
-2.39,-9.41,1.24,9.79
-2.40,-9.43,1.20,9.81
-2.43,-9.48,1.22,9.87
-2.41,-9.48,1.23,9.86
-2.42,-9.43,1.28,9.82
-2.40,-9.43,1.21,9.81
-2.41,-9.43,1.20,9.81
-2.40,-9.45,1.21,9.83
-2.38,-9.45,1.21,9.82
-2.39,-9.46,1.20,9.83
-2.40,-9.45,0.93,9.79
-2.33,-9.45,1.24,9.82
-2.35,-9.46,1.15,9.82
-2.32,-9.48,1.21,9.84
-2.36,-9.44,1.17,9.80
-2.34,-9.45,1.22,9.81
-2.39,-9.43,1.20,9.80
-2.35,-9.44,1.20,9.80
-2.34,-9.45,1.22,9.81
-2.36,-9.44,1.19,9.80
-2.35,-9.44,1.23,9.81
-2.40,-9.50,1.18,9.87
-2.36,-9.50,1.23,9.86
-2.35,-9.47,1.19,9.83
-2.36,-9.50,1.12,9.85
-2.32,-9.49,1.22,9.84
-2.33,-9.44,1.20,9.80
-2.35,-9.46,1.21,9.82
-2.31,-9.44,1.21,9.79
-2.33,-9.43,1.19,9.79
-2.34,-9.44,1.18,9.79
-2.33,-9.44,1.15,9.79
-2.34,-9.43,1.14,9.78
-2.34,-9.43,1.16,9.79
-2.43,-9.43,1.24,9.82
-2.45,-9.44,1.36,9.85
-2.48,-9.44,1.28,9.85
-2.33,-9.33,1.08,9.68
-2.28,-9.41,1.05,9.74
-2.34,-9.54,1.10,9.88
-2.31,-9.48,1.06,9.81
-2.37,-9.47,1.16,9.83
-2.40,-9.51,1.38,9.90
-2.41,-9.39,1.33,9.78
-2.44,-9.41,1.28,9.81
-2.42,-9.40,1.17,9.78
-2.39,-9.45,1.12,9.81
-2.37,-9.43,1.12,9.79
-2.33,-9.48,1.15,9.83
-2.34,-9.48,1.11,9.83
-2.33,-9.50,1.11,9.84
-2.36,-9.50,1.12,9.85
-2.38,-9.51,1.18,9.88
-2.40,-9.51,1.16,9.87
-2.41,-9.51,1.20,9.88
-2.38,-9.50,1.17,9.86
-2.38,-9.49,1.18,9.85
-2.30,-9.44,1.21,9.79
-2.35,-9.52,1.45,9.91
-2.31,-9.40,1.18,9.75
-2.27,-9.47,1.20,9.81
-2.29,-9.42,1.16,9.77
-2.31,-9.40,1.17,9.75
-2.33,-9.44,1.15,9.79
-2.37,-9.43,1.17,9.79
-2.40,-9.44,1.14,9.81
-2.36,-9.46,1.19,9.82
-2.37,-9.47,1.07,9.82
-2.38,-9.43,1.14,9.80
-2.36,-9.49,1.18,9.85
-2.37,-9.52,1.28,9.89
-2.34,-9.45,1.20,9.80
-2.36,-9.44,1.14,9.80
-2.37,-9.47,1.17,9.83
-2.37,-9.46,1.17,9.83
-2.38,-9.44,1.24,9.81
-2.37,-9.46,1.19,9.83
-2.35,-9.45,1.36,9.84
-2.37,-9.45,1.10,9.81
-2.37,-9.49,1.16,9.85
-2.37,-9.46,1.19,9.82
-2.37,-9.46,1.17,9.82
-2.36,-9.45,1.22,9.81
-2.34,-9.46,1.16,9.82
-2.36,-9.45,1.18,9.82
-2.34,-9.43,1.20,9.79
-2.36,-9.43,1.17,9.79
-2.35,-9.44,1.17,9.80
-2.34,-9.42,1.20,9.78
-2.31,-9.44,1.18,9.79
-2.36,-9.47,1.20,9.83
-2.37,-9.47,1.18,9.84
-2.37,-9.48,1.18,9.84
-2.38,-9.47,1.16,9.83
-2.36,-9.47,1.17,9.83
-2.36,-9.47,1.19,9.83
-2.34,-9.49,1.19,9.84
-2.34,-9.47,1.19,9.83
-2.33,-9.47,1.17,9.83
-2.32,-9.43,1.19,9.79
-2.33,-9.44,1.19,9.80
-2.35,-9.46,1.21,9.82
-2.35,-9.45,1.31,9.82
-2.36,-9.46,1.12,9.82
-2.38,-9.47,1.20,9.84
-2.38,-9.45,1.11,9.81
-2.38,-9.45,1.13,9.81
-2.42,-9.46,1.23,9.84
-2.46,-9.46,1.29,9.86
-2.47,-9.48,1.36,9.89
-2.37,-9.37,1.18,9.73
-2.26,-9.33,1.06,9.66
-2.29,-9.53,1.16,9.87
-2.27,-9.50,1.04,9.82
-2.30,-9.43,1.10,9.76
-2.35,-9.48,1.37,9.87
-2.35,-9.42,1.31,9.79
-2.40,-9.39,1.38,9.79
-2.37,-9.34,1.03,9.69
-2.43,-9.43,1.08,9.80
-2.41,-9.46,1.13,9.83
-2.36,-9.46,1.12,9.81
-2.40,-9.50,1.14,9.86
-2.36,-9.49,1.14,9.84
-2.37,-9.51,1.16,9.87
-2.36,-9.50,1.17,9.85
-2.39,-9.50,1.17,9.87
-2.39,-9.49,1.18,9.85
-2.41,-9.45,1.19,9.82
-2.40,-9.47,1.19,9.84
-2.39,-9.47,1.30,9.85
-2.40,-9.47,1.27,9.85
-2.38,-9.42,1.16,9.78
-2.35,-9.43,1.19,9.79
-2.34,-9.43,1.17,9.78
-2.32,-9.42,1.20,9.77
-2.35,-9.44,1.19,9.80
-2.34,-9.45,1.18,9.81
-2.37,-9.44,1.16,9.80
-2.33,-9.47,1.15,9.82
-2.36,-9.45,1.07,9.80
-2.33,-9.45,1.11,9.80
-2.36,-9.47,1.16,9.83
-2.37,-9.49,1.22,9.86
-2.32,-9.46,1.21,9.81
-2.36,-9.45,1.16,9.81
-2.37,-9.50,1.19,9.86
-2.39,-9.47,1.17,9.83
-2.36,-9.43,1.17,9.80
-2.39,-9.44,1.19,9.81
-2.39,-9.45,1.19,9.82
-2.36,-9.43,1.16,9.79
-2.36,-9.45,1.15,9.81
-2.37,-9.43,1.18,9.79
-2.38,-9.46,1.17,9.83
-2.37,-9.46,1.15,9.82
-2.40,-9.48,1.16,9.85
-2.37,-9.46,1.20,9.82
-2.35,-9.46,1.18,9.82
-2.38,-9.44,1.12,9.80
-2.30,-9.46,1.18,9.81
-2.37,-9.47,1.15,9.83
-2.33,-9.49,1.11,9.83
-2.34,-9.46,1.08,9.81
-2.31,-9.49,1.19,9.84
-2.35,-9.44,1.14,9.80
-2.35,-9.47,1.12,9.82
-2.36,-9.49,1.18,9.85
-2.35,-9.45,1.18,9.81
-2.36,-9.48,1.17,9.84
-2.35,-9.49,1.15,9.84
-2.34,-9.45,1.13,9.80
-2.33,-9.48,1.18,9.83
-2.36,-9.48,1.14,9.83
-2.31,-9.44,1.22,9.80
-2.34,-9.43,1.16,9.79
-2.34,-9.44,1.15,9.80
-2.34,-9.44,1.14,9.80
-2.35,-9.41,1.08,9.76
-2.35,-9.45,1.12,9.80
-2.35,-9.45,1.22,9.81
-2.39,-9.48,1.30,9.86
-2.41,-9.48,1.35,9.88
-2.35,-9.44,1.26,9.81
-2.29,-9.37,1.08,9.70
-2.30,-9.44,1.05,9.78
-2.26,-9.56,1.08,9.88
-2.23,-9.47,1.06,9.79
-2.26,-9.40,1.36,9.76
-2.38,-9.43,1.27,9.81
-2.37,-9.44,1.21,9.81
-2.42,-9.40,1.14,9.77
-2.36,-9.44,1.11,9.79
-2.33,-9.52,1.12,9.86
-2.31,-9.50,1.12,9.84
-2.30,-9.53,1.09,9.86
-2.31,-9.52,1.06,9.85
-2.33,-9.56,0.91,9.88
-2.32,-9.57,1.12,9.91
-2.32,-9.54,1.19,9.89
-2.34,-9.49,1.17,9.85
-2.32,-9.53,1.18,9.88
-2.32,-9.47,1.15,9.82
-2.31,-9.40,1.18,9.75
-2.29,-9.38,1.14,9.72
-2.30,-9.43,1.13,9.78
-2.32,-9.40,1.09,9.75
-2.30,-9.43,1.10,9.77
-2.29,-9.44,1.13,9.78
-2.32,-9.44,1.13,9.78
-2.34,-9.46,1.14,9.81
-2.32,-9.50,1.14,9.84
-2.33,-9.46,1.03,9.80
-2.32,-9.44,1.07,9.78
-2.34,-9.49,0.89,9.82
-2.31,-9.49,1.27,9.85
-2.31,-9.44,1.21,9.79
-2.29,-9.43,1.12,9.77
-2.31,-9.48,1.21,9.83
-2.34,-9.46,1.16,9.81
-2.32,-9.44,1.11,9.79
-2.32,-9.47,1.13,9.82
-2.33,-9.49,1.16,9.84
-2.38,-9.44,1.16,9.80
-2.34,-9.44,1.16,9.80
-2.35,-9.47,1.16,9.83
-2.32,-9.48,1.15,9.82
-2.32,-9.48,1.15,9.83
-2.33,-9.51,1.14,9.86
-2.30,-9.48,1.16,9.82
-2.28,-9.46,1.16,9.80
-2.32,-9.47,1.15,9.82
-2.31,-9.48,1.17,9.82
-2.26,-9.43,1.15,9.76
-2.27,-9.47,1.16,9.80
-2.30,-9.48,1.16,9.83
-2.32,-9.46,1.15,9.80
-2.32,-9.50,1.19,9.85
-2.34,-9.49,1.10,9.83
-2.32,-9.46,1.07,9.80
-2.35,-9.50,1.16,9.85
-2.36,-9.46,1.19,9.82
-2.36,-9.47,1.19,9.83
-2.33,-9.45,1.20,9.81
-2.35,-9.46,1.18,9.82
-2.32,-9.46,1.19,9.81
-2.28,-9.44,1.15,9.78
-2.28,-9.44,1.14,9.77
-2.30,-9.43,1.16,9.78
-2.30,-9.44,1.25,9.80
-2.34,-9.39,1.19,9.75
-2.34,-9.41,1.34,9.79
-2.39,-9.50,1.41,9.90
-2.25,-9.38,0.83,9.68
-2.22,-9.42,0.94,9.72
-2.20,-9.50,1.24,9.83
-2.24,-9.39,1.11,9.71
-2.34,-9.49,1.11,9.84
-2.39,-9.44,1.40,9.84
-2.44,-9.35,1.17,9.73
-2.44,-9.44,1.18,9.82
-2.40,-9.51,1.23,9.88
-2.39,-9.51,1.06,9.87
-2.36,-9.54,1.12,9.89
-2.32,-9.52,1.15,9.86
-2.31,-9.51,1.16,9.85
-2.34,-9.52,1.16,9.87
-2.31,-9.50,1.12,9.84
-2.32,-9.45,1.19,9.80
-2.34,-9.47,1.20,9.83
-2.33,-9.39,1.18,9.75
-2.32,-9.39,1.19,9.75
-2.34,-9.38,1.16,9.73
-2.36,-9.38,1.18,9.75
-2.34,-9.43,1.13,9.78
-2.31,-9.40,1.08,9.74
-2.32,-9.44,1.17,9.79
-2.35,-9.45,1.16,9.80
-2.36,-9.48,1.18,9.84
-2.35,-9.48,1.17,9.84
-2.32,-9.49,1.19,9.85
-2.30,-9.43,1.12,9.77
-2.28,-9.50,1.10,9.83
-2.31,-9.50,1.18,9.84
-2.34,-9.46,1.23,9.82
-2.33,-9.41,1.16,9.77
-2.31,-9.48,1.18,9.83
-2.37,-9.47,1.21,9.84
-2.34,-9.43,1.22,9.79
-2.31,-9.40,1.32,9.77
-2.35,-9.46,1.02,9.80
-2.34,-9.50,1.16,9.85
-2.33,-9.48,1.17,9.84
-2.35,-9.43,1.17,9.79
-2.33,-9.45,1.19,9.80
-2.31,-9.45,1.17,9.80
-2.33,-9.47,1.16,9.82
-2.36,-9.50,1.19,9.86
-2.35,-9.49,1.18,9.84
-2.35,-9.48,1.20,9.84
-2.32,-9.45,1.18,9.80
-2.34,-9.47,1.16,9.83
-2.31,-9.45,1.22,9.81
-2.33,-9.45,1.14,9.80
-2.31,-9.45,1.11,9.79
-2.37,-9.48,1.25,9.85
-2.34,-9.47,1.20,9.82
-2.32,-9.49,1.18,9.84
-2.31,-9.47,1.19,9.82
-2.32,-9.46,1.16,9.81
-2.31,-9.47,1.18,9.82
-2.30,-9.47,1.19,9.82
-2.32,-9.50,1.20,9.85
-2.29,-9.46,1.18,9.80
-2.39,-9.44,1.17,9.81
-2.37,-9.43,1.14,9.79
-2.38,-9.44,1.10,9.80
-2.36,-9.42,1.17,9.78
-2.38,-9.43,1.21,9.80
-2.40,-9.43,1.33,9.82
-2.42,-9.47,1.46,9.89
-2.39,-9.45,1.28,9.83
-2.26,-9.39,0.93,9.70
-2.26,-9.58,1.02,9.89
-2.20,-9.52,1.09,9.83
-2.22,-9.33,1.23,9.67
-2.34,-9.45,1.27,9.82
-2.35,-9.45,1.30,9.83
-2.38,-9.39,1.24,9.76
-2.40,-9.45,1.17,9.82
-2.39,-9.49,1.16,9.85
-2.35,-9.49,1.14,9.85
-2.29,-9.51,1.13,9.84
-2.28,-9.52,1.13,9.85
-2.31,-9.52,1.08,9.86
-2.37,-9.54,0.88,9.87
-2.32,-9.54,1.17,9.88
-2.37,-9.51,1.21,9.88
-2.35,-9.47,1.20,9.83
-2.34,-9.46,1.26,9.82
-2.35,-9.46,1.22,9.82
-2.29,-9.45,1.22,9.80
-2.31,-9.45,1.19,9.80
-2.29,-9.45,1.17,9.79
-2.27,-9.44,1.17,9.78
-2.29,-9.44,1.18,9.78
-2.30,-9.46,1.15,9.81
-2.31,-9.42,1.15,9.77
-2.38,-9.46,1.15,9.83
-2.35,-9.45,1.19,9.81
-2.35,-9.48,1.23,9.84
-2.33,-9.45,1.10,9.80
-2.31,-9.45,1.12,9.79
-2.31,-9.48,1.18,9.83
-2.34,-9.51,1.27,9.88
-2.29,-9.44,1.20,9.79
-2.30,-9.44,1.19,9.79
-2.35,-9.52,1.27,9.89
-2.32,-9.45,1.20,9.80
-2.32,-9.44,1.21,9.79
-2.38,-9.51,1.18,9.87
-2.43,-9.47,1.14,9.84
-2.41,-9.48,1.16,9.84
-2.40,-9.45,1.22,9.82
-2.39,-9.43,1.20,9.80
-2.36,-9.41,1.10,9.76
-2.37,-9.48,1.21,9.85
-2.35,-9.45,1.19,9.81
-2.36,-9.44,1.18,9.80
-2.34,-9.45,1.18,9.81
-2.34,-9.46,1.17,9.82
-2.31,-9.45,1.18,9.80
-2.31,-9.45,1.18,9.80
-2.30,-9.46,1.21,9.81
-2.31,-9.49,1.20,9.84
-2.32,-9.45,1.18,9.80
-2.30,-9.49,1.17,9.84
-2.28,-9.48,1.16,9.82
-2.29,-9.46,1.18,9.81
-2.32,-9.47,1.27,9.84
-2.28,-9.50,1.48,9.88
-2.29,-9.50,1.12,9.83
-2.28,-9.49,1.19,9.83
-2.32,-9.44,1.11,9.79
-2.37,-9.45,1.07,9.81
-2.35,-9.47,1.15,9.83
-2.37,-9.42,1.11,9.78
-2.43,-9.46,1.17,9.84
-2.42,-9.46,1.25,9.84
-2.47,-9.49,1.47,9.91
-2.44,-9.31,1.18,9.70
-2.30,-9.32,1.04,9.66
-2.26,-9.48,1.08,9.80
-2.26,-9.49,1.03,9.81
-2.30,-9.42,1.04,9.75
-2.33,-9.47,1.38,9.85
-2.37,-9.39,1.38,9.78
-2.36,-9.37,1.55,9.79
-2.35,-9.40,1.27,9.77
-2.37,-9.44,1.14,9.80
-2.35,-9.44,1.11,9.79
-2.34,-9.47,1.11,9.82
-2.32,-9.48,1.07,9.82
-2.37,-9.50,1.15,9.86
-2.34,-9.50,1.10,9.84
-2.37,-9.55,1.15,9.90
-2.38,-9.55,1.18,9.91
-2.38,-9.52,1.20,9.89
-2.39,-9.49,1.20,9.86
-2.38,-9.48,1.19,9.84
-2.39,-9.44,1.21,9.81
-2.35,-9.45,1.20,9.81
-2.33,-9.44,1.22,9.80
-2.33,-9.44,1.21,9.80
-2.32,-9.43,1.19,9.78
-2.29,-9.41,1.20,9.76
-2.33,-9.39,1.22,9.75
-2.33,-9.42,1.20,9.78
-2.38,-9.43,1.19,9.80
-2.33,-9.46,1.45,9.85
-2.40,-9.40,1.12,9.77
-2.39,-9.47,1.19,9.84
-2.39,-9.45,1.14,9.82
-2.40,-9.46,1.18,9.83
-2.39,-9.49,1.29,9.87
-2.31,-9.45,1.19,9.80
-2.33,-9.39,1.16,9.75
-2.40,-9.42,1.14,9.79
-2.39,-9.46,1.22,9.83
-2.39,-9.41,1.22,9.78
-2.34,-9.43,1.19,9.79
-2.33,-9.44,1.18,9.80
-2.34,-9.43,1.20,9.79
-2.34,-9.43,1.19,9.79
-2.36,-9.43,1.21,9.79
-2.38,-9.47,1.19,9.84
-2.36,-9.45,1.18,9.81
-2.39,-9.49,1.20,9.85
-2.40,-9.48,1.21,9.85
-2.42,-9.49,1.20,9.86
-2.41,-9.47,1.22,9.85
-2.38,-9.46,1.19,9.83
-2.35,-9.44,1.20,9.80
-2.35,-9.46,1.19,9.82
-2.31,-9.46,1.18,9.81
-2.35,-9.45,1.18,9.80
-2.34,-9.43,1.19,9.79
-2.37,-9.42,1.19,9.79
-2.37,-9.45,1.18,9.81
-2.38,-9.46,1.20,9.82
-2.39,-9.46,1.18,9.83
-2.39,-9.44,1.17,9.81
-2.38,-9.43,1.17,9.79
-2.34,-9.44,1.18,9.79
-2.36,-9.46,1.16,9.82
-2.38,-9.45,1.14,9.81
-2.36,-9.41,1.11,9.77
-2.39,-9.41,1.00,9.76
-2.43,-9.52,1.42,9.93
-2.52,-9.49,1.41,9.92
-2.41,-9.40,1.26,9.78
-2.30,-9.30,1.07,9.64
-2.25,-9.51,1.15,9.84
-2.27,-9.52,0.93,9.84
-2.26,-9.44,0.95,9.76
-2.36,-9.52,1.37,9.91
-2.40,-9.46,1.41,9.87
-2.42,-9.41,1.33,9.81
-2.43,-9.37,1.24,9.76
-2.40,-9.38,1.16,9.75
-2.40,-9.40,1.17,9.77
-2.35,-9.44,1.11,9.79
-2.31,-9.47,1.11,9.81
-2.29,-9.48,1.10,9.81
-2.27,-9.50,1.09,9.83
-2.28,-9.53,1.10,9.86
-2.27,-9.51,1.10,9.84
-2.32,-9.52,1.15,9.87
-2.37,-9.49,1.16,9.85
-2.40,-9.52,1.16,9.88
-2.43,-9.50,1.17,9.88
-2.40,-9.50,1.13,9.87
-2.46,-9.45,0.87,9.80
-2.38,-9.53,1.38,9.92
-2.40,-9.46,1.08,9.82
-2.32,-9.48,1.16,9.83
-2.32,-9.47,1.18,9.82
-2.34,-9.44,1.11,9.79
-2.33,-9.45,1.15,9.80
-2.32,-9.44,1.20,9.79
-2.32,-9.42,1.19,9.78
-2.30,-9.41,1.07,9.75
-2.35,-9.42,1.11,9.77
-2.38,-9.45,1.20,9.82
-2.37,-9.46,1.23,9.83
-2.30,-9.44,1.16,9.78
-2.30,-9.44,1.11,9.78
-2.28,-9.51,1.14,9.85
-2.30,-9.50,1.20,9.85
-2.28,-9.47,1.19,9.82
-2.27,-9.51,1.18,9.84
-2.26,-9.44,1.17,9.78
-2.25,-9.48,1.34,9.84
-2.29,-9.47,1.16,9.81
-2.33,-9.42,1.05,9.77
-2.37,-9.44,1.16,9.80
-2.36,-9.45,1.06,9.80
-2.35,-9.45,1.06,9.80
-2.35,-9.47,1.15,9.82
-2.39,-9.50,1.16,9.86
-2.37,-9.50,1.12,9.86
-2.37,-9.49,1.16,9.85
-2.34,-9.47,1.17,9.83
-2.34,-9.48,1.18,9.84
-2.32,-9.49,1.20,9.84
-2.34,-9.47,1.17,9.82
-2.34,-9.47,1.15,9.82
-2.37,-9.44,1.19,9.81
-2.38,-9.45,1.17,9.82
-2.42,-9.46,1.14,9.83
-2.39,-9.47,1.16,9.83
-2.35,-9.51,1.16,9.86
-2.28,-9.46,1.17,9.80
-2.33,-9.46,1.17,9.82
-2.29,-9.44,1.16,9.78
-2.30,-9.39,1.19,9.74
-2.27,-9.44,1.28,9.80
-2.29,-9.42,1.10,9.76
-2.32,-9.42,1.11,9.77
-2.31,-9.42,1.10,9.76
-2.34,-9.40,1.09,9.75
-2.39,-9.44,1.20,9.82
-2.49,-9.45,1.34,9.87
-2.53,-9.46,1.40,9.89
-2.46,-9.36,1.19,9.75
-2.38,-9.38,1.00,9.72
-2.40,-9.57,1.11,9.93
-2.39,-9.52,0.99,9.86
-2.40,-9.46,1.14,9.83
-2.41,-9.47,1.42,9.87
-2.42,-9.45,1.35,9.85
-2.45,-9.38,1.23,9.77
-2.41,-9.40,1.17,9.78
-2.41,-9.41,1.13,9.78
-2.38,-9.45,1.12,9.81
-2.37,-9.46,1.10,9.82
-2.38,-9.50,1.12,9.86
-2.38,-9.52,1.14,9.88
-2.37,-9.48,1.12,9.84
-2.40,-9.50,1.13,9.86
-2.37,-9.49,1.18,9.85
-2.36,-9.47,1.22,9.83
-2.40,-9.49,1.22,9.86
-2.44,-9.45,1.20,9.83
-2.43,-9.47,1.16,9.84
-2.43,-9.44,1.16,9.82
-2.45,-9.48,1.19,9.86
-2.44,-9.42,1.18,9.80
-2.44,-9.44,1.13,9.81
-2.43,-9.44,1.14,9.81
-2.40,-9.49,1.34,9.88
-2.40,-9.41,1.27,9.79
-2.37,-9.39,1.09,9.75
-2.37,-9.39,1.20,9.76
-2.37,-9.42,1.09,9.78
-2.42,-9.42,1.10,9.78
-2.39,-9.45,1.22,9.82
-2.43,-9.50,1.31,9.89
-2.40,-9.43,1.22,9.81
-2.41,-9.40,1.13,9.77
-2.42,-9.47,1.20,9.85
-2.41,-9.45,1.19,9.83
-2.41,-9.43,1.19,9.81
-2.43,-9.43,1.18,9.80
-2.43,-9.42,1.16,9.80
-2.41,-9.46,1.15,9.83
-2.41,-9.48,1.14,9.85
-2.40,-9.46,1.20,9.83
-2.40,-9.43,1.23,9.81
-2.39,-9.42,1.13,9.78
-2.42,-9.40,1.16,9.77
-2.48,-9.40,1.18,9.80
-2.49,-9.33,1.15,9.73
-2.54,-9.33,1.12,9.73
-2.54,-9.33,1.07,9.73
-2.56,-9.38,1.08,9.78
-2.53,-9.39,0.99,9.78
-2.62,-9.55,0.75,9.94
-2.47,-9.59,1.25,9.98
-2.33,-9.58,1.15,9.93
-2.29,-9.53,1.14,9.87
-2.28,-9.57,1.17,9.91
-2.24,-9.61,1.16,9.94
-2.29,-9.60,1.22,9.94
-2.36,-9.59,1.07,9.93
-2.40,-9.54,1.15,9.90
-2.42,-9.49,1.21,9.87
-2.39,-9.45,1.15,9.82
-2.45,-9.44,1.13,9.81
-2.41,-9.42,1.19,9.80
-2.39,-9.36,1.21,9.73
-2.32,-9.38,1.14,9.73
-2.35,-9.45,1.15,9.80
-2.40,-9.45,1.18,9.82
-2.40,-9.44,1.15,9.81
-2.43,-9.40,1.15,9.78
-2.50,-9.45,1.13,9.84
-2.52,-9.45,1.12,9.84
-2.51,-9.40,1.14,9.80
-2.50,-9.32,0.93,9.70
-2.41,-9.31,1.12,9.69
-2.49,-9.32,1.12,9.72
-2.50,-9.39,1.43,9.82
-2.44,-9.33,1.22,9.72
-2.34,-9.28,0.95,9.62
-2.43,-9.52,1.10,9.89
-2.42,-9.49,0.99,9.85
-2.41,-9.40,1.02,9.75
-2.40,-9.44,1.44,9.85
-2.37,-9.43,1.44,9.83
-2.29,-9.49,1.51,9.88
-2.32,-9.45,1.07,9.79
-2.29,-9.45,1.05,9.78
-2.30,-9.48,1.03,9.81
-2.31,-9.52,1.02,9.85
-2.34,-9.54,1.03,9.88
-2.36,-9.59,1.01,9.93
-2.38,-9.59,1.04,9.94
-2.44,-9.62,1.10,9.99
-2.42,-9.58,1.13,9.95
-2.44,-9.58,1.16,9.95
-2.45,-9.59,1.18,9.97
-2.43,-9.52,1.14,9.89
-2.48,-9.50,1.18,9.89
-2.45,-9.47,1.16,9.85
-2.39,-9.47,1.32,9.86
-2.41,-9.40,1.02,9.75
-2.42,-9.38,1.13,9.76
-2.39,-9.39,1.21,9.77
-2.43,-9.39,1.11,9.76
-2.40,-9.37,1.07,9.73
-2.41,-9.40,1.13,9.77
-2.42,-9.41,1.20,9.79
-2.44,-9.42,1.14,9.80
-2.46,-9.37,0.99,9.74
-2.45,-9.44,1.10,9.81
-2.51,-9.43,1.17,9.83
-2.49,-9.42,1.25,9.82
-2.49,-9.37,1.12,9.76
-2.46,-9.40,1.14,9.79
-2.49,-9.40,1.15,9.79
-2.48,-9.43,1.16,9.81
-2.48,-9.43,1.17,9.82
-2.47,-9.44,1.19,9.83
-2.49,-9.44,1.18,9.83
-2.49,-9.43,1.16,9.82
-2.47,-9.47,1.18,9.86
-2.48,-9.47,1.16,9.86
-2.49,-9.45,1.15,9.84
-2.46,-9.47,1.07,9.84
-2.43,-9.42,0.95,9.78
-2.43,-9.43,1.15,9.80
-2.36,-9.41,1.16,9.78
-2.40,-9.41,1.21,9.78
-2.37,-9.42,1.18,9.78
-2.40,-9.38,1.14,9.75
-2.44,-9.40,1.12,9.78
-2.39,-9.41,1.12,9.78
-2.41,-9.43,1.06,9.79
-2.42,-9.47,1.12,9.84
-2.42,-9.46,1.11,9.82
-2.40,-9.47,1.10,9.84
-2.36,-9.47,1.10,9.82
-2.32,-9.48,1.10,9.82
-2.36,-9.49,1.07,9.84
-2.32,-9.48,1.08,9.82
-2.31,-9.45,1.09,9.78
-2.34,-9.44,1.09,9.79
-2.34,-9.44,1.10,9.79
-2.32,-9.43,1.09,9.78
-2.33,-9.43,1.07,9.77
-2.34,-9.44,1.05,9.78
-2.30,-9.44,1.04,9.77
-2.32,-9.47,1.02,9.80
-2.29,-9.50,1.03,9.82
-2.27,-9.49,1.02,9.82
-2.30,-9.49,1.03,9.81
-2.30,-9.57,1.11,9.90
-2.36,-9.60,1.19,9.96
-2.38,-9.59,1.22,9.95
-2.48,-9.65,1.44,10.07
-2.48,-9.46,1.19,9.86
-2.39,-9.35,0.91,9.70
-2.44,-9.58,1.12,9.95
-2.38,-9.48,1.07,9.83
-2.34,-9.35,1.15,9.70
-2.34,-9.28,1.22,9.65
-2.42,-9.35,1.13,9.72
-2.42,-9.33,1.12,9.70
-2.40,-9.35,0.92,9.70
-2.44,-9.51,1.25,9.90
-2.43,-9.53,1.15,9.90
-2.41,-9.56,1.13,9.92
-2.44,-9.55,1.19,9.93
-2.47,-9.55,1.16,9.93
-2.46,-9.56,1.24,9.94
-2.45,-9.54,1.21,9.93
-2.45,-9.49,1.21,9.87
-2.39,-9.41,1.23,9.79
-2.41,-9.38,1.19,9.76
-2.37,-9.37,1.19,9.74
-2.33,-9.32,1.18,9.68
-2.34,-9.34,1.12,9.69
-2.34,-9.35,1.10,9.70
-2.32,-9.40,1.10,9.74
-2.33,-9.42,1.11,9.77
-2.37,-9.44,1.10,9.80
-2.39,-9.48,1.11,9.84
-2.40,-9.51,1.11,9.87
-2.40,-9.53,1.18,9.90
-2.38,-9.46,1.04,9.81
-2.39,-9.46,1.06,9.81
-2.39,-9.48,1.12,9.84
-2.42,-9.44,1.05,9.80
-2.41,-9.44,1.27,9.83
-2.39,-9.42,1.03,9.77
-2.40,-9.50,1.17,9.87
-2.39,-9.46,1.13,9.82
-2.37,-9.42,1.06,9.77
-2.39,-9.44,1.02,9.79
-2.37,-9.48,1.12,9.83
-2.41,-9.47,1.04,9.83
-2.37,-9.41,0.87,9.74
-2.39,-9.54,1.34,9.92
-2.36,-9.49,1.08,9.84
-2.32,-9.49,1.07,9.83
-2.34,-9.52,1.09,9.86
-2.32,-9.49,1.13,9.83
-2.28,-9.47,1.06,9.80
-2.27,-9.48,1.10,9.81
-2.26,-9.46,1.08,9.79
-2.25,-9.48,1.13,9.81
-2.21,-9.50,1.09,9.82
-2.28,-9.48,1.05,9.81
-2.25,-9.54,1.13,9.86
-2.24,-9.51,1.15,9.83
-2.24,-9.52,1.12,9.85
-2.25,-9.49,1.11,9.82
-2.27,-9.47,1.10,9.80
-2.26,-9.47,1.05,9.80
-2.30,-9.47,1.07,9.80
-2.26,-9.47,1.11,9.80
-2.28,-9.44,1.10,9.77
-2.26,-9.44,1.13,9.77
-2.30,-9.46,1.12,9.80
-2.31,-9.45,1.15,9.79
-2.31,-9.42,0.98,9.75
-2.29,-9.45,1.12,9.79
-2.30,-9.43,1.14,9.78
-2.31,-9.45,1.17,9.80
-2.39,-9.42,1.18,9.79
-2.44,-9.47,1.33,9.87
-2.45,-9.48,1.38,9.89
-2.43,-9.36,0.98,9.72
-2.35,-9.46,0.97,9.80
-2.35,-9.60,1.17,9.95
-2.24,-9.37,1.16,9.71
-2.39,-9.41,1.14,9.77
-2.44,-9.44,1.19,9.83
-2.48,-9.40,1.24,9.80
-2.49,-9.42,1.13,9.81
-2.49,-9.46,1.08,9.85
-2.46,-9.51,1.08,9.89
-2.42,-9.50,1.05,9.86
-2.37,-9.51,1.06,9.86
-2.38,-9.48,1.05,9.83
-2.38,-9.50,1.07,9.86
-2.39,-9.52,1.12,9.87
-2.39,-9.52,1.12,9.88
-2.40,-9.51,1.18,9.88
-2.42,-9.49,1.17,9.86
-2.38,-9.48,1.20,9.85
-2.43,-9.45,1.13,9.82
-2.41,-9.43,1.14,9.79
-2.41,-9.40,1.11,9.77
-2.40,-9.41,1.12,9.77
-2.39,-9.41,1.15,9.77
-2.38,-9.42,1.13,9.79
-2.35,-9.43,1.11,9.78
-2.34,-9.43,1.06,9.78
-2.35,-9.47,1.11,9.82
-2.32,-9.51,1.21,9.86
-2.32,-9.42,1.03,9.76
-2.32,-9.46,1.02,9.80
-2.37,-9.50,1.16,9.85
-2.36,-9.43,1.20,9.80
-2.41,-9.41,1.14,9.78
-2.38,-9.45,1.12,9.80
-2.41,-9.48,1.19,9.85
-2.36,-9.41,1.13,9.77
-2.36,-9.42,1.09,9.77
-2.36,-9.51,1.05,9.85
-2.35,-9.51,1.06,9.85
-2.35,-9.49,1.08,9.83
-2.35,-9.47,1.09,9.81
-2.36,-9.45,1.02,9.80
-2.37,-9.49,1.20,9.85
-2.38,-9.50,1.07,9.85
-2.34,-9.49,1.11,9.84
-2.35,-9.50,1.17,9.85
-2.35,-9.48,1.03,9.82
-2.36,-9.52,1.09,9.87
-2.34,-9.49,1.14,9.84
-2.34,-9.48,1.11,9.83
-2.36,-9.47,1.11,9.83
-2.32,-9.48,1.17,9.83
-2.32,-9.50,1.08,9.84
-2.37,-9.49,1.15,9.85
-2.33,-9.47,1.10,9.82
-2.35,-9.47,1.05,9.81
-2.33,-9.48,1.09,9.83
-2.33,-9.46,1.14,9.81
-2.35,-9.44,1.07,9.79
-2.32,-9.44,1.08,9.78
-2.32,-9.45,1.14,9.80
-2.31,-9.45,1.11,9.80
-2.34,-9.46,1.09,9.80
-2.28,-9.46,1.07,9.79
-2.33,-9.48,1.08,9.82
-2.34,-9.47,1.13,9.82
-2.42,-9.47,1.27,9.86
-2.41,-9.51,1.28,9.89
-2.41,-9.46,1.21,9.84
-2.29,-9.44,0.94,9.76
-2.24,-9.59,1.07,9.91
-2.26,-9.49,1.08,9.81
-2.26,-9.33,1.20,9.68
-2.36,-9.44,1.21,9.81
-2.40,-9.44,1.19,9.81
-2.44,-9.38,1.13,9.76
-2.42,-9.49,1.10,9.86
-2.40,-9.52,1.07,9.88
-2.37,-9.53,1.06,9.87
-2.31,-9.50,1.08,9.84
-2.35,-9.52,1.05,9.86
-2.33,-9.53,1.06,9.87
-2.33,-9.56,1.08,9.90
-2.34,-9.57,1.11,9.91
-2.33,-9.51,1.12,9.85
-2.34,-9.48,1.09,9.82
-2.36,-9.43,1.00,9.78
-2.34,-9.46,1.20,9.82
-2.35,-9.41,1.09,9.77
-2.32,-9.42,1.09,9.77
-2.34,-9.41,1.10,9.76
-2.31,-9.39,1.09,9.73
-2.32,-9.44,1.10,9.78
-2.32,-9.42,1.11,9.77
-2.33,-9.41,1.11,9.76
-2.36,-9.42,1.10,9.78
-2.40,-9.44,1.13,9.80
-2.37,-9.46,1.18,9.82
-2.34,-9.43,1.06,9.77
-2.31,-9.46,1.03,9.79
-2.32,-9.48,1.09,9.82
-2.36,-9.49,1.18,9.85
-2.34,-9.45,1.08,9.80
-2.38,-9.46,1.12,9.82
-2.38,-9.49,1.19,9.85
-2.38,-9.46,1.10,9.81
-2.34,-9.46,1.11,9.81
-2.38,-9.48,1.11,9.83
-2.36,-9.47,1.09,9.82
-2.38,-9.47,1.10,9.83
-2.37,-9.47,1.11,9.82
-2.35,-9.47,1.15,9.83
-2.36,-9.48,1.13,9.83
-2.37,-9.50,1.14,9.85
-2.37,-9.49,1.14,9.85
-2.37,-9.50,1.16,9.86
-2.38,-9.49,1.15,9.85
-2.37,-9.45,1.10,9.80
-2.34,-9.45,1.13,9.81
-2.34,-9.45,1.16,9.81
-2.34,-9.43,1.14,9.79
-2.36,-9.46,1.15,9.82
-2.35,-9.47,1.14,9.82
-2.34,-9.47,1.17,9.82
-2.37,-9.48,1.13,9.83
-2.35,-9.48,1.12,9.83
-2.35,-9.48,1.14,9.84
-2.34,-9.47,1.15,9.82
-2.34,-9.35,1.07,9.70
-2.40,-9.55,1.17,9.92
-2.37,-9.43,1.07,9.78
-2.34,-9.41,1.17,9.77
-2.34,-9.44,1.13,9.79
-2.36,-9.44,1.16,9.80
-2.39,-9.42,1.38,9.82
-2.45,-9.51,1.58,9.94
-2.36,-9.38,1.14,9.73
-2.27,-9.39,0.96,9.71
-2.30,-9.49,1.11,9.83
-2.28,-9.53,1.01,9.85
-2.35,-9.47,1.30,9.85
-2.36,-9.44,1.37,9.82
-2.39,-9.42,1.40,9.82
-2.42,-9.40,1.23,9.78
-2.40,-9.42,1.18,9.79
-2.40,-9.46,1.12,9.83
-2.35,-9.52,1.18,9.88
-2.40,-9.45,1.16,9.82
-2.30,-9.44,1.05,9.77
-2.32,-9.49,1.09,9.83
-2.33,-9.50,1.11,9.84
