Ax,Ay,Az,Amag,Ax2,Ay2,Az2,Amag2
-6.55,4.07,6.06,9.81,-3.82,-2.53,8.62,9.76
-6.55,4.07,6.08,9.81,-3.85,-2.57,8.63,9.80
-6.50,3.97,6.10,9.76,-3.84,-2.60,8.68,9.84
-6.50,3.93,6.14,9.77,-3.85,-2.58,8.71,9.87
-6.54,4.00,6.18,9.84,-3.84,-2.60,8.70,9.86
-6.57,4.16,6.10,9.88,-3.79,-2.62,8.74,9.88
-6.55,4.17,6.06,9.85,-3.84,-2.59,8.70,9.85
-6.54,4.07,6.06,9.80,-3.82,-2.55,8.62,9.77
-6.52,3.95,6.04,9.72,-3.86,-2.50,8.60,9.76
-6.52,3.88,6.07,9.72,-3.87,-2.48,8.63,9.78
-6.53,3.99,6.11,9.79,-3.79,-2.56,8.70,9.83
-6.60,4.14,6.11,9.90,-3.81,-2.56,8.76,9.88
-6.59,4.23,6.07,9.91,-3.79,-2.58,8.77,9.90
-6.56,4.22,6.08,9.88,-3.82,-2.62,8.72,9.88
-6.50,4.09,6.08,9.80,-3.83,-2.56,8.71,9.85
-6.55,3.95,6.09,9.77,-3.85,-2.54,8.65,9.81
-6.54,3.96,6.10,9.78,-3.86,-2.55,8.65,9.81
-6.52,4.02,6.08,9.78,-3.85,-2.57,8.65,9.81
-6.46,4.02,6.07,9.73,-3.83,-2.57,8.67,9.82
-6.45,3.99,6.14,9.76,-3.78,-2.61,8.73,9.86
-6.57,4.08,6.15,9.88,-3.85,-2.62,8.72,9.89
-6.60,4.13,6.16,9.93,-3.86,-2.64,8.76,9.93
-6.57,4.12,6.09,9.86,-3.81,-2.59,8.74,9.89
-6.54,4.07,6.09,9.81,-3.83,-2.54,8.64,9.79
-6.52,4.03,6.03,9.76,-3.85,-2.48,8.63,9.77
-6.52,3.98,6.03,9.73,-3.79,-2.51,8.62,9.74
-6.49,4.01,6.06,9.74,-3.81,-2.54,8.69,9.82
-6.54,4.07,6.08,9.81,-3.80,-2.57,8.75,9.88
-6.58,4.14,6.09,9.88,-3.81,-2.58,8.78,9.91
-6.63,4.19,6.10,9.93,-3.80,-2.57,8.74,9.87
-6.55,4.16,6.07,9.85,-3.81,-2.55,8.76,9.89
-6.54,4.07,6.12,9.84,-3.80,-2.56,8.76,9.89
-6.53,4.02,6.10,9.80,-3.81,-2.60,8.73,9.87
-6.53,4.07,6.11,9.82,-3.80,-2.59,8.70,9.84
-6.58,4.09,6.07,9.84,-3.84,-2.57,8.65,9.81
-6.55,4.06,6.06,9.80,-3.85,-2.54,8.65,9.80
-6.53,3.97,6.08,9.77,-3.86,-2.58,8.65,9.81
-6.49,3.91,6.12,9.74,-3.82,-2.61,8.69,9.84
-6.51,3.94,6.13,9.77,-3.86,-2.61,8.69,9.86
-6.53,4.06,6.14,9.84,-3.83,-2.64,8.67,9.84
-6.48,4.09,6.13,9.81,-3.83,-2.65,8.73,9.89
-6.47,4.06,6.10,9.78,-3.81,-2.66,8.73,9.89
-6.51,3.99,6.08,9.76,-3.84,-2.57,8.72,9.87
-6.60,4.04,6.10,9.85,-3.85,-2.49,8.67,9.80
-6.62,4.10,6.05,9.86,-3.83,-2.50,8.67,9.80
-6.56,4.08,6.03,9.79,-3.90,-2.53,8.69,9.86
-6.51,4.04,6.01,9.74,-3.88,-2.52,8.64,9.80
-6.53,3.97,6.03,9.74,-3.82,-2.50,8.66,9.79
-6.53,3.98,6.07,9.77,-3.79,-2.52,8.69,9.81
-6.53,4.05,6.08,9.80,-3.81,-2.57,8.75,9.88
-6.56,4.15,6.07,9.85,-3.82,-2.55,8.81,9.93
-6.57,4.18,6.07,9.87,-3.79,-2.55,8.75,9.87
-6.63,4.16,6.09,9.91,-3.84,-2.54,8.72,9.86
-6.57,4.09,6.09,9.85,-3.83,-2.56,8.70,9.84
-6.53,3.98,6.09,9.78,-3.81,-2.54,8.75,9.88
-6.54,4.01,6.09,9.79,-3.77,-2.57,8.71,9.83
-6.60,4.09,6.08,9.86,-3.84,-2.52,8.69,9.83
-6.58,4.13,6.01,9.82,-3.84,-2.50,8.67,9.81
-6.53,4.04,6.04,9.76,-3.84,-2.52,8.68,9.81
-6.54,3.98,6.09,9.78,-3.82,-2.58,8.72,9.86
-6.54,4.01,6.11,9.81,-3.82,-2.55,8.75,9.88
-6.59,4.10,6.08,9.86,-3.82,-2.55,8.73,9.86
-6.61,4.18,6.06,9.89,-3.82,-2.50,8.71,9.83
-6.55,4.13,6.04,9.82,-3.81,-2.53,8.74,9.87
-6.52,3.97,6.04,9.74,-3.82,-2.57,8.73,9.87
-6.53,3.98,6.05,9.75,-3.85,-2.50,8.66,9.80
-6.60,4.03,6.06,9.83,-3.86,-2.45,8.68,9.81
-6.58,4.09,6.03,9.82,-3.82,-2.57,8.68,9.83
-6.55,4.13,6.09,9.84,-3.84,-2.59,8.73,9.89
-6.54,4.11,6.08,9.83,-3.84,-2.59,8.76,9.90
-6.54,4.09,6.08,9.82,-3.81,-2.54,8.73,9.86
-6.57,4.06,6.10,9.84,-3.81,-2.55,8.71,9.84
-6.56,4.04,6.09,9.82,-3.84,-2.54,8.74,9.87
-6.58,4.06,6.08,9.83,-3.84,-2.57,8.70,9.85
-6.59,4.09,6.06,9.84,-3.86,-2.49,8.72,9.85
-6.60,4.06,6.01,9.81,-3.84,-2.45,8.67,9.79
-6.59,4.05,6.03,9.81,-3.78,-2.47,8.71,9.81
-6.55,4.02,6.03,9.77,-3.81,-2.52,8.77,9.89
-6.54,4.09,6.06,9.81,-3.86,-2.52,8.74,9.89
-6.63,4.14,6.05,9.88,-3.83,-2.49,8.73,9.85
-6.62,4.13,6.03,9.87,-3.86,-2.46,8.68,9.81
-6.57,4.08,6.03,9.81,-3.80,-2.49,8.69,9.80
-6.55,4.00,6.03,9.76,-3.86,-2.49,8.65,9.80
-6.57,4.01,6.08,9.81,-3.85,-2.50,8.71,9.85
-6.56,4.05,6.05,9.80,-3.82,-2.54,8.72,9.86
-6.56,4.07,6.08,9.83,-3.86,-2.52,8.70,9.85
-6.56,4.09,6.06,9.82,-3.85,-2.57,8.71,9.86
-6.51,4.04,6.09,9.78,-3.85,-2.56,8.68,9.84
-6.55,4.04,6.09,9.81,-3.84,-2.56,8.67,9.82
-6.55,4.00,6.11,9.81,-3.82,-2.53,8.69,9.83
-6.54,3.98,6.09,9.78,-3.82,-2.58,8.70,9.85
-6.52,4.01,6.08,9.77,-3.82,-2.54,8.71,9.84
-6.61,4.07,6.06,9.84,-3.86,-2.50,8.69,9.83
-6.60,4.06,6.03,9.82,-3.83,-2.51,8.70,9.83
-6.55,4.07,6.03,9.79,-3.79,-2.50,8.72,9.83
-6.55,4.06,6.07,9.81,-3.80,-2.52,8.74,9.86
-6.53,4.10,6.09,9.82,-3.76,-2.55,8.76,9.86
-6.59,4.18,6.09,9.90,-3.82,-2.57,8.78,9.91
-6.58,4.17,6.05,9.86,-3.79,-2.54,8.78,9.90
-6.61,4.14,6.05,9.87,-3.81,-2.48,8.77,9.88
-6.61,4.08,6.03,9.83,-3.81,-2.49,8.68,9.81
-6.59,4.04,6.02,9.80,-3.85,-2.49,8.63,9.77
-6.52,3.93,6.02,9.71,-3.89,-2.49,8.64,9.80
-6.52,3.95,6.06,9.73,-3.83,-2.49,8.66,9.79
-6.54,3.99,6.07,9.77,-3.84,-2.53,8.72,9.86
-6.56,4.05,6.10,9.83,-3.78,-2.59,8.76,9.88
-6.54,4.11,6.12,9.85,-3.83,-2.64,8.82,9.97
-6.60,4.19,6.11,9.92,-3.86,-2.59,8.78,9.94
-6.56,4.14,6.04,9.83,-3.85,-2.45,8.69,9.81
-6.56,4.03,6.02,9.78,-3.83,-2.45,8.63,9.75
-6.53,3.94,6.02,9.72,-3.86,-2.41,8.59,9.72
-6.53,3.96,5.97,9.69,-3.85,-2.41,8.62,9.75
-6.61,4.02,5.99,9.79,-3.80,-2.42,8.66,9.76
-6.60,4.10,6.06,9.85,-3.82,-2.48,8.74,9.85
-6.58,4.19,6.09,9.90,-3.81,-2.57,8.82,9.95
-6.53,4.17,6.09,9.86,-3.85,-2.64,8.85,10.00
-6.60,4.16,6.10,9.90,-3.83,-2.58,8.75,9.89
-6.57,4.09,6.08,9.84,-3.80,-2.54,8.68,9.81
-6.50,3.97,6.07,9.74,-3.82,-2.51,8.66,9.80
-6.50,3.95,6.03,9.71,-3.83,-2.48,8.63,9.76
-6.52,3.99,6.02,9.73,-3.83,-2.45,8.65,9.77
-6.54,4.03,6.03,9.76,-3.87,-2.48,8.64,9.79
-6.56,4.08,6.06,9.81,-3.88,-2.53,8.65,9.82
-6.54,4.05,6.07,9.80,-3.86,-2.57,8.73,9.89
-6.54,4.05,6.11,9.82,-3.84,-2.60,8.82,9.96
-6.54,4.03,6.23,9.89,-3.73,-2.56,8.80,9.89
-6.70,4.34,6.02,10.00,-3.76,-2.51,8.81,9.90
-6.66,4.31,5.94,9.91,-3.82,-2.48,8.73,9.85
-6.53,4.10,6.01,9.77,-3.80,-2.44,8.68,9.79
-6.44,3.93,6.05,9.67,-3.88,-2.46,8.66,9.80
-6.51,3.89,6.07,9.71,-3.83,-2.48,8.70,9.82
-6.60,4.06,6.08,9.85,-3.83,-2.55,8.70,9.85
-6.58,4.16,6.08,9.88,-3.83,-2.57,8.74,9.88
-6.56,4.19,6.07,9.87,-3.82,-2.61,8.80,9.94
-6.59,4.10,6.07,9.86,-3.84,-2.54,8.77,9.90
-6.65,4.02,6.06,9.85,-3.86,-2.46,8.65,9.79
-6.60,4.00,6.01,9.78,-3.85,-2.42,8.62,9.75
-6.50,3.97,5.99,9.69,-3.86,-2.48,8.64,9.79
-6.51,4.02,6.06,9.76,-3.80,-2.52,8.74,9.85
-6.56,4.07,6.06,9.82,-3.79,-2.52,8.77,9.88
-6.65,4.22,6.05,9.94,-3.82,-2.53,8.74,9.87
-6.60,4.16,6.06,9.87,-3.87,-2.51,8.70,9.85
-6.52,4.01,6.09,9.78,-3.86,-2.52,8.69,9.84
-6.54,3.90,6.10,9.75,-3.82,-2.54,8.72,9.86
-6.53,3.98,6.12,9.79,-3.83,-2.55,8.71,9.85
-6.59,4.12,6.05,9.85,-3.83,-2.51,8.70,9.83
-6.57,4.16,6.04,9.85,-3.80,-2.50,8.72,9.83
-6.53,4.12,6.06,9.81,-3.83,-2.52,8.77,9.90
-6.55,4.05,6.09,9.81,-3.78,-2.60,8.80,9.92
-6.60,4.05,6.12,9.87,-3.84,-2.55,8.81,9.94
-6.67,4.22,6.04,9.94,-3.84,-2.47,8.73,9.86
-6.62,4.20,5.97,9.86,-3.78,-2.43,8.65,9.75
-6.53,4.03,5.99,9.73,-3.87,-2.48,8.64,9.79
-6.50,3.89,6.00,9.67,-3.89,-2.48,8.62,9.77
-6.52,3.87,6.02,9.68,-3.91,-2.47,8.61,9.78
-6.57,3.98,6.07,9.79,-3.86,-2.48,8.63,9.78
-6.55,4.06,6.04,9.79,-3.82,-2.58,8.71,9.85
-6.50,4.11,6.11,9.83,-3.79,-2.63,8.84,9.97
-6.52,4.13,6.14,9.86,-3.83,-2.65,8.84,9.99
-6.60,4.15,6.08,9.89,-3.84,-2.56,8.75,9.89
-6.65,4.11,6.06,9.89,-3.84,-2.51,8.70,9.83
-6.54,4.02,6.04,9.77,-3.87,-2.47,8.65,9.79
-6.51,3.96,6.00,9.70,-3.82,-2.48,8.64,9.76
-6.53,3.98,5.97,9.71,-3.81,-2.45,8.64,9.75
-6.57,4.02,6.00,9.76,-3.85,-2.40,8.65,9.77
-6.63,4.09,6.03,9.85,-3.86,-2.44,8.76,9.88
-6.62,4.13,6.06,9.88,-3.83,-2.53,8.85,9.96
-6.59,4.14,6.07,9.87,-3.82,-2.55,8.84,9.96
-6.65,4.17,6.07,9.92,-3.81,-2.51,8.75,9.87
-6.57,4.10,6.06,9.84,-3.84,-2.48,8.71,9.84
-6.52,4.03,6.04,9.75,-3.81,-2.51,8.69,9.81
-6.50,3.97,6.02,9.71,-3.82,-2.51,8.67,9.80
-6.57,4.01,6.04,9.79,-3.86,-2.51,8.62,9.78
-6.56,4.01,6.04,9.78,-3.88,-2.53,8.71,9.86
-6.57,4.05,6.06,9.81,-3.84,-2.53,8.70,9.84
-6.55,4.05,6.09,9.82,-3.81,-2.56,8.75,9.88
-6.56,4.06,6.09,9.84,-3.83,-2.57,8.77,9.91
-6.57,4.09,6.07,9.84,-3.84,-2.56,8.73,9.87
-6.60,4.09,6.06,9.85,-3.85,-2.50,8.72,9.86
-6.57,4.05,6.05,9.80,-3.83,-2.51,8.70,9.83
-6.56,4.05,6.02,9.78,-3.82,-2.50,8.69,9.82
-6.53,4.03,6.02,9.75,-3.83,-2.49,8.66,9.79
-6.56,4.08,6.04,9.81,-3.81,-2.51,8.73,9.85
-6.59,4.13,6.08,9.87,-3.82,-2.57,8.77,9.90
-6.62,4.14,6.09,9.90,-3.83,-2.58,8.84,9.97
-6.64,4.16,6.06,9.91,-3.83,-2.55,8.81,9.94
-6.64,4.16,6.02,9.88,-3.82,-2.50,8.71,9.83
-6.58,4.12,6.01,9.82,-3.84,-2.44,8.60,9.72
-6.54,4.00,6.00,9.74,-3.83,-2.46,8.63,9.76
-6.54,3.94,6.04,9.74,-3.81,-2.48,8.65,9.77
-6.58,4.02,6.06,9.81,-3.87,-2.51,8.71,9.86
-6.55,4.11,6.07,9.83,-3.81,-2.60,8.78,9.92
-6.57,4.14,6.11,9.88,-3.86,-2.62,8.75,9.92
-6.53,4.11,6.12,9.85,-3.88,-2.62,8.75,9.93
-6.56,4.02,6.12,9.83,-3.84,-2.58,8.75,9.90
-6.62,4.00,6.11,9.86,-3.82,-2.56,8.71,9.86
-6.61,4.04,6.03,9.81,-3.88,-2.45,8.64,9.78
-6.58,4.05,5.95,9.75,-3.86,-2.40,8.61,9.73
-6.49,3.98,5.99,9.69,-3.82,-2.42,8.61,9.73
-6.52,3.95,6.04,9.72,-3.80,-2.51,8.69,9.81
-6.58,4.03,6.10,9.84,-3.82,-2.51,8.78,9.90
-6.64,4.19,6.09,9.93,-3.82,-2.55,8.84,9.96
-6.62,4.25,6.09,9.95,-3.77,-2.59,8.87,9.98
-6.57,4.18,6.06,9.87,-3.78,-2.56,8.85,9.96
-6.57,4.16,6.04,9.85,-3.83,-2.52,8.71,9.85
-6.60,4.05,6.02,9.81,-3.84,-2.44,8.63,9.76
-6.56,3.97,5.99,9.73,-3.87,-2.48,8.59,9.75
-6.51,3.93,5.99,9.68,-3.85,-2.50,8.61,9.76
-6.51,3.93,6.05,9.72,-3.84,-2.54,8.65,9.80
-6.55,4.02,6.07,9.79,-3.84,-2.58,8.73,9.88
-6.56,4.11,6.09,9.85,-3.84,-2.62,8.77,9.92
-6.61,4.16,6.12,9.92,-3.85,-2.64,8.78,9.94
-6.57,4.14,6.09,9.87,-3.87,-2.60,8.75,9.91
-6.58,4.04,6.02,9.79,-3.85,-2.49,8.69,9.83
-6.58,4.00,5.96,9.73,-3.84,-2.39,8.61,9.72
-6.62,3.99,5.96,9.76,-3.80,-2.37,8.60,9.69
-6.58,3.99,6.00,9.76,-3.79,-2.42,8.64,9.74
-6.54,4.05,5.99,9.75,-3.82,-2.49,8.72,9.84
-6.59,4.12,6.04,9.84,-3.83,-2.50,8.76,9.88
-6.64,4.19,6.06,9.92,-3.81,-2.48,8.79,9.89
-6.69,4.24,6.05,9.97,-3.79,-2.49,8.79,9.90
-6.65,4.19,6.06,9.92,-3.76,-2.53,8.82,9.92
-6.52,4.11,6.06,9.80,-3.82,-2.60,8.79,9.93
-6.52,4.02,6.07,9.78,-3.82,-2.56,8.75,9.88
-6.60,4.08,6.08,9.86,-3.83,-2.51,8.76,9.89
-6.62,4.15,6.05,9.88,-3.85,-2.50,8.68,9.82
-6.64,4.09,6.02,9.85,-3.83,-2.49,8.66,9.79
-6.51,3.97,6.00,9.71,-3.86,-2.53,8.63,9.78
-6.51,3.93,6.04,9.71,-3.85,-2.52,8.67,9.82
-6.55,3.96,6.07,9.77,-3.87,-2.53,8.67,9.82
-6.58,4.03,6.09,9.83,-3.84,-2.56,8.71,9.86
-6.59,4.15,6.09,9.88,-3.82,-2.64,8.74,9.90
-6.53,4.11,6.11,9.84,-3.85,-2.65,8.75,9.92
-6.48,4.08,6.09,9.78,-3.81,-2.58,8.77,9.90
-6.54,4.05,6.05,9.79,-3.83,-2.54,8.72,9.86
-6.64,4.07,6.04,9.85,-3.82,-2.46,8.66,9.78
-6.63,4.09,6.00,9.83,-3.83,-2.45,8.69,9.81
-6.55,4.09,6.01,9.79,-3.85,-2.46,8.73,9.85
-6.58,4.06,5.99,9.78,-3.82,-2.45,8.71,9.82
-6.61,4.08,6.00,9.82,-3.84,-2.40,8.69,9.80
-6.65,4.10,6.00,9.85,-3.83,-2.43,8.72,9.83
-6.59,4.15,6.04,9.86,-3.78,-2.56,8.77,9.89
-6.52,4.08,6.09,9.81,-3.78,-2.61,8.83,9.95
-6.56,4.12,6.08,9.85,-3.84,-2.59,8.78,9.93
-6.64,4.17,6.02,9.89,-3.90,-2.45,8.61,9.76
-6.64,4.11,5.97,9.83,-3.85,-2.45,8.60,9.73
-6.49,3.87,6.04,9.67,-3.88,-2.51,8.66,9.81
-6.48,3.88,6.06,9.68,-3.88,-2.53,8.65,9.82
-6.55,3.99,6.06,9.77,-3.88,-2.49,8.67,9.83
-6.63,4.11,6.02,9.86,-3.81,-2.50,8.65,9.78
-6.58,4.17,6.05,9.86,-3.80,-2.58,8.74,9.87
-6.47,4.02,6.11,9.77,-3.80,-2.65,8.85,9.99
-6.58,4.05,6.10,9.85,-3.86,-2.55,8.77,9.92
-6.72,4.15,6.06,9.96,-3.84,-2.40,8.63,9.74
-6.67,4.18,6.00,9.90,-3.83,-2.44,8.61,9.73
-6.54,4.10,5.95,9.74,-3.82,-2.48,8.63,9.76
-6.43,3.87,6.04,9.63,-3.86,-2.55,8.65,9.81
-6.54,3.90,6.07,9.74,-3.86,-2.52,8.67,9.82
-6.68,4.05,6.06,9.88,-3.85,-2.52,8.73,9.87
-6.69,4.16,6.06,9.94,-3.82,-2.58,8.82,9.95
-6.62,4.18,6.07,9.91,-3.83,-2.58,8.84,9.98
-6.55,4.15,6.02,9.82,-3.82,-2.55,8.75,9.88
-6.60,4.15,6.00,9.84,-3.84,-2.42,8.64,9.76
-6.58,4.13,5.99,9.80,-3.81,-2.44,8.61,9.73
-6.53,4.05,5.95,9.72,-3.84,-2.48,8.63,9.76
-6.48,3.98,6.04,9.71,-3.84,-2.51,8.65,9.79
-6.51,3.95,6.05,9.72,-3.88,-2.55,8.64,9.81
-6.60,4.02,6.07,9.82,-3.84,-2.55,8.69,9.84
-6.64,4.08,6.03,9.85,-3.91,-2.59,8.78,9.96
-6.58,4.12,6.11,9.88,-3.81,-2.60,8.83,9.96
-6.61,4.18,6.04,9.88,-3.74,-2.56,8.77,9.87
-6.56,4.18,6.02,9.83,-3.86,-2.46,8.70,9.84
-6.62,4.13,5.97,9.82,-3.86,-2.49,8.67,9.81
-6.61,4.05,5.98,9.79,-3.81,-2.48,8.66,9.78
-6.58,4.02,6.02,9.78,-3.80,-2.47,8.69,9.80
-6.56,4.09,6.01,9.79,-3.79,-2.50,8.69,9.80
-6.56,4.17,6.01,9.82,-3.83,-2.55,8.75,9.89
-6.59,4.16,6.05,9.86,-3.79,-2.61,8.77,9.90
-6.58,4.12,6.07,9.85,-3.84,-2.60,8.75,9.90
-6.57,4.10,6.04,9.82,-3.87,-2.56,8.66,9.82
-6.56,4.02,6.03,9.77,-3.88,-2.54,8.60,9.77
-6.53,3.98,6.02,9.73,-3.86,-2.53,8.62,9.77
-6.50,3.96,6.04,9.72,-3.82,-2.56,8.71,9.85
-6.54,4.03,6.09,9.80,-3.78,-2.60,8.79,9.92
-6.61,4.16,6.06,9.89,-3.83,-2.52,8.80,9.92
-6.63,4.31,6.03,9.94,-3.74,-2.55,8.81,9.90
-6.61,4.26,5.98,9.89,-3.82,-2.49,8.78,9.90
-6.65,4.17,5.98,9.87,-3.81,-2.48,8.76,9.87
-6.63,4.09,6.00,9.84,-3.80,-2.46,8.71,9.82
-6.58,4.06,5.96,9.76,-3.83,-2.44,8.63,9.76
-6.56,4.06,5.97,9.76,-3.80,-2.48,8.59,9.72
-6.51,4.11,6.04,9.79,-3.82,-2.51,8.63,9.77
-6.53,4.07,6.06,9.79,-3.85,-2.61,8.75,9.91
-6.58,4.05,6.07,9.82,-3.84,-2.64,8.75,9.92
-6.63,4.12,6.11,9.91,-3.86,-2.61,8.81,9.97
-6.61,4.15,6.08,9.89,-3.83,-2.62,8.75,9.90
-6.58,4.13,6.00,9.81,-3.85,-2.56,8.68,9.84
-6.56,4.07,5.99,9.77,-3.83,-2.51,8.66,9.80
-6.57,4.04,5.96,9.75,-3.82,-2.42,8.65,9.77
-6.62,4.09,5.92,9.78,-3.81,-2.37,8.65,9.75
-6.64,4.13,5.93,9.82,-3.82,-2.40,8.64,9.75
-6.56,4.13,5.95,9.77,-3.82,-2.46,8.69,9.81
-6.52,4.07,6.01,9.76,-3.79,-2.61,8.75,9.89
-6.55,4.10,6.10,9.84,-3.82,-2.60,8.82,9.96
-6.68,4.20,6.09,9.97,-3.87,-2.59,8.74,9.91
-6.63,4.19,6.01,9.88,-3.88,-2.54,8.68,9.84
-6.54,4.07,6.01,9.78,-3.86,-2.53,8.64,9.80
-6.47,3.93,6.03,9.68,-3.83,-2.54,8.66,9.81
-6.53,3.89,6.06,9.72,-3.83,-2.52,8.65,9.79
-6.56,4.12,6.01,9.81,-3.83,-2.54,8.66,9.81
-6.58,4.18,6.01,9.84,-3.85,-2.54,8.72,9.86
-6.56,4.17,6.05,9.85,-3.78,-2.60,8.80,9.92
-6.56,4.09,6.03,9.81,-3.82,-2.55,8.74,9.87
-6.64,4.11,6.02,9.86,-3.83,-2.49,8.70,9.83
-6.64,4.15,5.97,9.85,-3.83,-2.46,8.70,9.81
-6.59,4.15,5.96,9.81,-3.77,-2.52,8.69,9.80
-6.54,4.10,5.99,9.77,-3.81,-2.50,8.73,9.85
-6.57,4.08,5.99,9.78,-3.83,-2.46,8.67,9.79
-6.65,4.15,5.99,9.86,-3.82,-2.47,8.65,9.77
-6.54,4.12,6.04,9.81,-3.79,-2.55,8.78,9.89
-6.50,4.07,6.08,9.79,-3.80,-2.64,8.80,9.94
-6.58,4.14,6.08,9.86,-3.82,-2.60,8.85,9.98
-6.68,4.25,6.03,9.95,-3.81,-2.50,8.77,9.88
-6.75,4.24,5.93,9.94,-3.85,-2.44,8.70,9.82
-6.60,4.10,5.95,9.79,-3.86,-2.48,8.64,9.78
-6.54,3.96,5.92,9.67,-3.87,-2.50,8.67,9.82
-6.54,3.92,5.96,9.67,-3.87,-2.41,8.64,9.77
-6.65,4.04,5.95,9.80,-3.82,-2.34,8.66,9.75
-6.62,4.26,5.97,9.88,-3.79,-2.43,8.76,9.85
-6.56,4.23,6.00,9.84,-3.77,-2.61,8.78,9.91
-6.53,4.15,6.05,9.82,-3.84,-2.60,8.78,9.93
-6.60,4.17,6.11,9.92,-3.82,-2.61,8.79,9.93
-6.60,4.14,6.10,9.89,-3.84,-2.60,8.72,9.88
-6.54,4.06,6.00,9.76,-3.85,-2.55,8.61,9.77
-6.52,4.02,5.99,9.72,-3.84,-2.50,8.60,9.75
-6.48,3.95,5.99,9.66,-3.87,-2.47,8.62,9.77
-6.53,3.97,6.03,9.74,-3.81,-2.49,8.67,9.79
-6.55,4.04,6.03,9.78,-3.83,-2.57,8.69,9.84
-6.59,4.19,5.99,9.84,-3.86,-2.51,8.76,9.89
-6.62,4.24,5.99,9.88,-3.84,-2.48,8.78,9.90
-6.63,4.20,5.99,9.87,-3.79,-2.46,8.78,9.87
-6.67,4.16,6.01,9.89,-3.80,-2.44,8.76,9.86
-6.63,4.14,5.98,9.84,-3.81,-2.44,8.76,9.86
-6.54,4.15,5.96,9.78,-3.78,-2.46,8.73,9.83
-6.58,4.17,5.99,9.82,-3.80,-2.51,8.81,9.92
-6.60,4.20,6.01,9.87,-3.79,-2.48,8.83,9.92
-6.70,4.20,5.98,9.92,-3.88,-2.48,8.71,9.85
-6.63,4.15,5.97,9.84,-3.88,-2.47,8.61,9.76
-6.51,3.99,5.93,9.67,-3.91,-2.44,8.59,9.75
-6.48,3.93,5.97,9.65,-3.87,-2.48,8.55,9.71
-6.52,3.90,5.99,9.68,-3.89,-2.50,8.60,9.76
-6.56,3.98,6.01,9.75,-3.88,-2.54,8.63,9.79
-6.59,4.13,6.01,9.83,-3.88,-2.56,8.68,9.84
-6.58,4.16,6.08,9.88,-3.81,-2.59,8.82,9.95
-6.54,4.13,6.11,9.86,-3.81,-2.62,8.86,9.99
-6.60,4.16,6.04,9.87,-3.85,-2.54,8.75,9.89
-6.67,4.18,5.99,9.89,-3.87,-2.38,8.67,9.79
-6.64,4.12,5.87,9.77,-3.88,-2.35,8.63,9.75
-6.56,4.03,5.89,9.69,-3.82,-2.35,8.59,9.69
-6.53,3.96,5.92,9.66,-3.81,-2.40,8.65,9.75
-6.53,3.98,5.99,9.72,-3.82,-2.48,8.75,9.87
-6.58,4.13,6.01,9.82,-3.81,-2.56,8.76,9.89
-6.60,4.30,6.04,9.93,-3.78,-2.58,8.84,9.96
-6.57,4.32,6.10,9.95,-3.74,-2.67,8.93,10.05
-6.59,4.27,6.07,9.92,-3.84,-2.62,8.83,9.98
-6.66,4.23,6.01,9.92,-3.83,-2.45,8.74,9.85
-6.71,4.14,5.93,9.86,-3.84,-2.34,8.60,9.70
-6.60,4.01,5.86,9.69,-3.83,-2.34,8.56,9.66
-6.52,3.94,5.89,9.63,-3.82,-2.41,8.58,9.70
-6.51,3.96,5.92,9.65,-3.83,-2.46,8.64,9.76
-6.59,4.03,5.97,9.77,-3.86,-2.45,8.72,9.85
-6.62,4.16,6.07,9.89,-3.80,-2.55,8.85,9.96
-6.67,4.26,6.06,9.97,-3.82,-2.63,8.88,10.02
-6.66,4.25,6.04,9.94,-3.89,-2.57,8.83,9.99
-6.65,4.17,6.00,9.88,-3.89,-2.47,8.71,9.86
-6.58,4.08,5.92,9.75,-3.84,-2.48,8.59,9.73
-6.55,3.95,5.92,9.67,-3.82,-2.41,8.57,9.69
-6.51,3.93,5.94,9.65,-3.89,-2.45,8.61,9.76
-6.56,3.96,5.99,9.73,-3.86,-2.49,8.69,9.83
-6.59,4.09,6.01,9.81,-3.85,-2.54,8.76,9.90
-6.61,4.17,6.05,9.88,-3.82,-2.58,8.78,9.91
-6.61,4.24,6.08,9.94,-3.85,-2.57,8.82,9.96
-6.64,4.25,6.04,9.93,-3.79,-2.54,8.87,9.98
-6.67,4.22,5.97,9.90,-3.79,-2.46,8.75,9.84
-6.63,4.17,5.96,9.84,-3.80,-2.38,8.70,9.78
-6.64,4.15,5.90,9.80,-3.80,-2.39,8.70,9.79
-6.58,4.09,5.92,9.75,-3.80,-2.44,8.69,9.79
-6.56,4.09,5.92,9.73,-3.83,-2.44,8.69,9.81
-6.58,4.13,5.95,9.79,-3.80,-2.46,8.75,9.86
-6.65,4.15,5.93,9.83,-3.80,-2.46,8.72,9.82
-6.61,4.23,6.01,9.88,-3.76,-2.51,8.76,9.86
-6.60,4.20,6.03,9.88,-3.81,-2.59,8.79,9.93
-6.55,4.14,6.03,9.82,-3.86,-2.59,8.73,9.90
-6.58,4.06,6.03,9.81,-3.87,-2.54,8.68,9.84
-6.61,4.06,6.00,9.81,-3.87,-2.46,8.62,9.77
-6.58,4.04,5.95,9.75,-3.84,-2.48,8.62,9.76
-6.54,4.02,5.95,9.71,-3.87,-2.48,8.68,9.82
-6.57,4.06,5.96,9.76,-3.86,-2.49,8.72,9.85
-6.65,4.11,5.98,9.84,-3.84,-2.50,8.73,9.86
-6.63,4.19,6.01,9.88,-3.83,-2.52,8.86,9.97
-6.63,4.26,6.04,9.92,-3.83,-2.57,8.80,9.93
-6.66,4.26,5.98,9.91,-3.86,-2.54,8.75,9.90
-6.63,4.21,5.93,9.84,-3.83,-2.46,8.68,9.80
-6.60,4.11,5.90,9.76,-3.83,-2.38,8.66,9.76
-6.59,3.98,5.94,9.73,-3.84,-2.43,8.62,9.75
-6.59,4.01,5.97,9.75,-3.81,-2.48,8.64,9.76
-6.61,4.13,5.92,9.79,-3.83,-2.48,8.68,9.81
-6.62,4.19,5.99,9.86,-3.83,-2.50,8.69,9.82
-6.60,4.19,5.99,9.85,-3.84,-2.55,8.79,9.93
-6.60,4.11,6.05,9.85,-3.82,-2.57,8.83,9.96
-6.67,4.09,5.99,9.85,-3.83,-2.54,8.72,9.86
-6.64,4.17,5.99,9.87,-3.76,-2.52,8.77,9.87
-6.49,4.15,5.95,9.73,-3.79,-2.45,8.73,9.82
-6.54,4.21,5.93,9.78,-3.79,-2.41,8.67,9.76
-6.66,4.30,5.96,9.91,-3.81,-2.50,8.73,9.85
-6.59,4.10,6.00,9.81,-3.90,-2.58,8.72,9.89
-6.55,3.94,6.02,9.73,-3.90,-2.58,8.70,9.88
-6.59,3.97,6.00,9.75,-3.89,-2.45,8.59,9.74
-6.61,4.02,5.99,9.79,-3.91,-2.49,8.59,9.76
-6.58,4.01,5.99,9.76,-3.82,-2.55,8.65,9.79
-6.49,4.02,6.04,9.73,-3.80,-2.63,8.81,9.95
-6.56,4.10,6.06,9.82,-3.77,-2.59,8.83,9.95
-6.67,4.24,6.06,9.95,-3.78,-2.53,8.72,9.84
-6.72,4.34,5.97,9.98,-3.85,-2.47,8.67,9.80
-6.64,4.22,5.89,9.82,-3.88,-2.43,8.67,9.80
-6.52,3.91,5.93,9.64,-3.83,-2.41,8.70,9.81
-6.62,3.95,5.96,9.74,-3.81,-2.35,8.68,9.77
-6.74,4.17,5.93,9.90,-3.80,-2.35,8.65,9.74
-6.70,4.29,5.87,9.89,-3.82,-2.45,8.75,9.86
-6.56,4.21,5.95,9.81,-3.81,-2.56,8.80,9.93
-6.53,4.09,6.05,9.79,-3.80,-2.63,8.82,9.96
-6.62,4.11,6.08,9.89,-3.80,-2.54,8.82,9.93
-6.72,4.21,6.03,9.96,-3.77,-2.53,8.76,9.86
-6.68,4.25,5.97,9.91,-3.84,-2.51,8.69,9.83
-6.52,4.07,5.94,9.71,-3.88,-2.53,8.66,9.82
-6.49,3.93,5.96,9.65,-3.81,-2.46,8.63,9.75
-6.55,3.92,6.00,9.71,-3.82,-2.47,8.63,9.76
-6.61,4.05,5.99,9.80,-3.80,-2.54,8.67,9.80
-6.62,4.13,6.03,9.86,-3.84,-2.62,8.76,9.91
-6.60,4.23,6.00,9.87,-3.86,-2.60,8.84,9.99
-6.63,4.15,6.00,9.86,-3.85,-2.57,8.74,9.89
-6.64,4.11,6.03,9.86,-3.84,-2.50,8.75,9.88
-6.62,4.08,6.03,9.84,-3.80,-2.50,8.79,9.90
-6.63,4.12,5.97,9.83,-3.81,-2.48,8.81,9.91
-6.69,4.26,5.86,9.86,-3.79,-2.34,8.75,9.81
-6.70,4.30,5.84,9.88,-3.78,-2.32,8.67,9.74
-6.62,4.22,5.86,9.80,-3.73,-2.38,8.72,9.77
-6.59,4.11,5.91,9.75,-3.82,-2.42,8.75,9.85
-6.59,4.06,5.94,9.76,-3.82,-2.45,8.73,9.84
-6.64,4.16,5.98,9.86,-3.82,-2.52,8.72,9.85
-6.58,4.15,6.01,9.83,-3.83,-2.56,8.74,9.88
-6.58,4.13,5.99,9.81,-3.85,-2.60,8.71,9.88
-6.57,4.09,6.03,9.81,-3.85,-2.61,8.71,9.87
-6.55,4.03,6.02,9.77,-3.86,-2.54,8.63,9.79
-6.53,4.00,6.02,9.74,-3.86,-2.54,8.60,9.76
-6.54,4.02,5.99,9.74,-3.88,-2.57,8.61,9.79
-6.54,3.99,6.03,9.74,-3.86,-2.60,8.69,9.86
-6.50,4.00,6.06,9.75,-3.82,-2.62,8.79,9.93
-6.61,4.18,6.01,9.86,-3.85,-2.56,8.76,9.90
-6.76,4.29,5.92,9.96,-3.85,-2.44,8.71,9.83
-6.69,4.25,5.87,9.86,-3.82,-2.38,8.68,9.78
-6.58,4.10,5.87,9.72,-3.78,-2.37,8.74,9.81
-6.54,3.99,5.91,9.67,-3.76,-2.39,8.75,9.82
-6.68,4.16,5.92,9.85,-3.79,-2.39,8.79,9.87
-6.72,4.33,5.89,9.93,-3.75,-2.43,8.78,9.85
-6.66,4.33,5.93,9.91,-3.76,-2.46,8.78,9.86
-6.57,4.27,5.98,9.85,-3.77,-2.57,8.79,9.90
-6.56,4.15,6.02,9.82,-3.83,-2.58,8.78,9.92
-6.64,4.09,6.00,9.84,-3.89,-2.50,8.73,9.88
-6.69,4.08,5.94,9.83,-3.83,-2.46,8.67,9.80
-6.61,4.09,5.92,9.77,-3.82,-2.42,8.68,9.79
-6.58,4.07,5.92,9.74,-3.85,-2.48,8.67,9.81
-6.55,4.02,5.94,9.71,-3.85,-2.51,8.68,9.83
-6.61,4.06,5.97,9.78,-3.86,-2.54,8.67,9.82
-6.63,4.13,6.00,9.85,-3.82,-2.51,8.69,9.82
-6.57,4.16,6.04,9.85,-3.74,-2.60,8.85,9.96
-6.57,4.20,6.02,9.85,-3.79,-2.56,8.82,9.93
-6.63,4.22,5.91,9.84,-3.85,-2.45,8.72,9.84
-6.72,4.19,5.87,9.86,-3.88,-2.35,8.62,9.74
-6.64,4.03,5.89,9.75,-3.79,-2.38,8.64,9.74
-6.52,3.92,5.93,9.65,-3.82,-2.44,8.64,9.76
-6.58,3.98,5.95,9.72,-3.83,-2.46,8.70,9.82
-6.71,4.28,5.93,9.92,-3.79,-2.48,8.76,9.86
-6.68,4.31,5.97,9.94,-3.77,-2.50,8.83,9.92
-6.60,4.24,6.03,9.89,-3.74,-2.61,8.90,10.00
-6.62,4.18,6.04,9.88,-3.84,-2.59,8.81,9.95
-6.65,4.20,5.98,9.88,-3.84,-2.46,8.70,9.82
-6.66,4.15,5.89,9.81,-3.82,-2.38,8.60,9.71
-6.50,4.03,5.91,9.67,-3.76,-2.44,8.66,9.75
-6.47,3.95,5.95,9.64,-3.82,-2.49,8.67,9.80
-6.58,4.04,5.99,9.77,-3.85,-2.52,8.72,9.86
-6.65,4.16,5.98,9.86,-3.82,-2.53,8.74,9.87
-6.66,4.23,5.95,9.88,-3.85,-2.51,8.70,9.84
-6.62,4.16,5.95,9.82,-3.83,-2.53,8.75,9.88
-6.61,4.05,5.99,9.79,-3.82,-2.50,8.75,9.87
-6.59,4.02,5.99,9.77,-3.82,-2.47,8.73,9.84
-6.61,4.07,5.93,9.77,-3.79,-2.45,8.75,9.85
-6.64,4.22,5.92,9.85,-3.74,-2.43,8.78,9.85
-6.66,4.27,5.89,9.86,-3.81,-2.45,8.72,9.83
-6.68,4.21,5.88,9.85,-3.85,-2.44,8.70,9.82
-6.61,4.09,5.93,9.77,-3.85,-2.44,8.71,9.83
-6.56,3.99,5.96,9.72,-3.78,-2.49,8.71,9.82
-6.61,4.05,5.98,9.79,-3.80,-2.53,8.72,9.84
-6.64,4.17,5.95,9.85,-3.84,-2.52,8.73,9.87
-6.59,4.22,5.94,9.82,-3.84,-2.56,8.73,9.88
-6.59,4.18,5.98,9.83,-3.80,-2.56,8.74,9.87
-6.56,4.07,6.02,9.79,-3.83,-2.56,8.72,9.86
-6.64,4.07,6.02,9.84,-3.83,-2.51,8.75,9.88
-6.71,4.16,5.97,9.90,-3.82,-2.44,8.71,9.82
-6.64,4.21,5.90,9.83,-3.79,-2.44,8.71,9.80
-6.55,4.12,5.89,9.73,-3.79,-2.46,8.69,9.79
-6.56,4.07,5.93,9.73,-3.82,-2.46,8.72,9.83
-6.64,4.11,5.95,9.82,-3.83,-2.47,8.72,9.84
-6.66,4.17,5.95,9.86,-3.80,-2.50,8.76,9.87
-6.63,4.16,5.96,9.84,-3.81,-2.50,8.71,9.83
-6.55,4.13,5.99,9.79,-3.81,-2.56,8.73,9.87
-6.57,4.09,5.98,9.78,-3.79,-2.53,8.73,9.85
-6.59,4.08,5.98,9.79,-3.78,-2.50,8.72,9.82
-6.61,4.13,5.97,9.82,-3.77,-2.48,8.76,9.85
-6.62,4.16,5.94,9.82,-3.84,-2.46,8.74,9.85
-6.68,4.17,5.91,9.84,-3.83,-2.44,8.71,9.82
-6.66,4.17,5.93,9.84,-3.82,-2.45,8.71,9.82
-6.62,4.09,5.94,9.79,-3.78,-2.46,8.73,9.83
-6.57,4.10,5.99,9.79,-3.80,-2.52,8.78,9.90
-6.56,4.14,6.00,9.81,-3.78,-2.59,8.80,9.92
-6.66,4.22,5.97,9.89,-3.85,-2.53,8.76,9.90
-6.64,4.21,5.96,9.87,-3.80,-2.51,8.74,9.86
-6.59,4.13,5.98,9.82,-3.79,-2.51,8.75,9.86
-6.56,4.08,5.98,9.77,-3.85,-2.53,8.67,9.82
-6.61,4.07,5.92,9.76,-3.91,-2.46,8.66,9.81
-6.65,4.11,5.90,9.79,-3.86,-2.43,8.65,9.78
-6.64,4.05,5.90,9.76,-3.80,-2.43,8.64,9.75
-6.63,4.05,5.93,9.77,-3.82,-2.50,8.70,9.82
-6.61,4.10,5.94,9.79,-3.82,-2.51,8.75,9.87
-6.62,4.16,5.94,9.82,-3.81,-2.54,8.71,9.83
-6.62,4.15,5.97,9.83,-3.80,-2.52,8.75,9.86
-6.57,4.14,5.99,9.81,-3.74,-2.54,8.74,9.84
-6.64,4.14,5.98,9.85,-3.79,-2.55,8.75,9.87
-6.64,4.19,5.96,9.86,-3.74,-2.52,8.79,9.88
-6.59,4.22,6.01,9.87,-3.75,-2.54,8.80,9.89
-6.58,4.17,5.97,9.81,-3.81,-2.54,8.77,9.89
-6.63,4.12,5.94,9.81,-3.83,-2.51,8.67,9.80
-6.64,4.08,5.93,9.79,-3.88,-2.45,8.66,9.80
-6.61,4.01,5.95,9.76,-3.84,-2.46,8.66,9.79
-6.61,4.08,5.92,9.77,-3.79,-2.46,8.72,9.82
-6.65,4.15,5.90,9.81,-3.78,-2.44,8.72,9.81
-6.63,4.18,5.92,9.82,-3.75,-2.51,8.72,9.81
-6.59,4.17,5.99,9.83,-3.76,-2.54,8.84,9.94
-6.60,4.20,5.99,9.85,-3.80,-2.59,8.86,9.99
-6.63,4.24,6.00,9.90,-3.80,-2.58,8.80,9.93
-6.71,4.25,5.91,9.89,-3.84,-2.47,8.70,9.82
-6.64,4.12,5.87,9.78,-3.85,-2.44,8.66,9.79
-6.59,3.99,5.91,9.71,-3.84,-2.43,8.60,9.72
-6.59,3.91,5.93,9.69,-3.84,-2.43,8.63,9.75
-6.62,3.93,5.97,9.75,-3.88,-2.46,8.63,9.78
-6.64,4.07,5.97,9.81,-3.83,-2.55,8.67,9.81
-6.63,4.18,5.99,9.86,-3.80,-2.56,8.75,9.88
-6.57,4.20,6.06,9.88,-3.72,-2.64,8.87,9.98
-6.59,4.25,6.06,9.91,-3.81,-2.62,8.89,10.01
-6.67,4.28,5.93,9.90,-3.82,-2.50,8.77,9.89
-6.70,4.22,5.88,9.87,-3.81,-2.40,8.65,9.75
-6.58,4.04,5.86,9.69,-3.82,-2.36,8.62,9.72
-6.53,3.92,5.88,9.62,-3.80,-2.44,8.60,9.71
-6.57,3.96,5.91,9.68,-3.82,-2.46,8.68,9.79
-6.65,4.18,5.94,9.85,-3.80,-2.45,8.70,9.80
-6.67,4.27,5.92,9.89,-3.80,-2.50,8.75,9.86
-6.63,4.27,6.02,9.92,-3.79,-2.62,8.86,9.98
-6.58,4.12,6.04,9.83,-3.79,-2.68,8.88,10.02
-6.60,4.12,6.04,9.85,-3.81,-2.53,8.72,9.84
-6.70,4.23,5.95,9.91,-3.80,-2.42,8.67,9.77
-6.61,4.16,5.89,9.78,-3.77,-2.44,8.68,9.78
-6.49,4.02,5.89,9.64,-3.81,-2.48,8.67,9.79
-6.55,4.00,5.92,9.69,-3.82,-2.47,8.67,9.79
-6.62,4.07,5.98,9.80,-3.83,-2.50,8.69,9.82
-6.67,4.15,6.00,9.88,-3.84,-2.54,8.75,9.88
-6.63,4.18,5.97,9.86,-3.86,-2.58,8.77,9.93
-6.61,4.18,5.97,9.84,-3.85,-2.56,8.76,9.90
-6.63,4.11,5.96,9.82,-3.82,-2.48,8.68,9.80
-6.61,4.07,5.98,9.80,-3.76,-2.50,8.70,9.80
-6.59,4.05,5.95,9.75,-3.79,-2.49,8.70,9.82
-6.61,4.14,5.93,9.80,-3.79,-2.51,8.70,9.82
-6.63,4.20,5.93,9.83,-3.77,-2.52,8.81,9.90
-6.62,4.24,5.97,9.87,-3.79,-2.55,8.79,9.90
-6.65,4.20,5.94,9.86,-3.81,-2.50,8.73,9.84
-6.67,4.18,5.90,9.83,-3.85,-2.40,8.69,9.80
-6.63,4.14,5.91,9.80,-3.79,-2.43,8.70,9.80
-6.61,4.06,5.90,9.75,-3.74,-2.46,8.73,9.81
-6.60,4.05,5.97,9.78,-3.81,-2.49,8.73,9.84
-6.61,4.14,5.96,9.82,-3.82,-2.52,8.73,9.85
-6.64,4.21,5.97,9.87,-3.80,-2.54,8.73,9.86
-6.65,4.17,5.98,9.87,-3.80,-2.57,8.79,9.92
-6.57,4.12,6.01,9.81,-3.83,-2.61,8.77,9.92
-6.58,4.10,5.98,9.79,-3.80,-2.53,8.76,9.88
-6.67,4.21,5.92,9.86,-3.80,-2.47,8.74,9.85
-6.64,4.17,5.89,9.81,-3.76,-2.44,8.66,9.75
-6.55,4.09,5.91,9.72,-3.79,-2.44,8.67,9.77
-6.56,4.03,5.91,9.70,-3.84,-2.47,8.65,9.78
-6.61,4.03,5.92,9.74,-3.86,-2.48,8.68,9.82
-6.63,4.14,5.97,9.83,-3.80,-2.51,8.74,9.86
-6.63,4.16,6.01,9.87,-3.80,-2.56,8.79,9.91
-6.64,4.20,5.98,9.88,-3.77,-2.56,8.85,9.96
-6.64,4.22,5.95,9.87,-3.79,-2.54,8.83,9.94
-6.67,4.26,5.93,9.89,-3.74,-2.48,8.76,9.84
-6.65,4.19,5.93,9.85,-3.82,-2.41,8.67,9.77
-6.56,4.06,5.92,9.72,-3.81,-2.51,8.68,9.81
-6.55,3.99,5.93,9.69,-3.87,-2.54,8.71,9.86
-6.61,4.03,5.97,9.78,-3.86,-2.50,8.69,9.83
-6.70,4.08,5.98,9.87,-3.82,-2.48,8.74,9.85
-6.65,4.18,5.96,9.86,-3.82,-2.53,8.77,9.89
-6.59,4.18,5.94,9.80,-3.81,-2.58,8.75,9.88
-6.61,4.16,5.92,9.80,-3.84,-2.52,8.72,9.86
-6.64,4.08,5.93,9.79,-3.81,-2.47,8.68,9.80
-6.64,4.05,5.96,9.80,-3.76,-2.46,8.71,9.80
-6.60,4.07,5.96,9.78,-3.79,-2.49,8.72,9.83
-6.58,4.15,5.89,9.75,-3.87,-2.54,8.74,9.89
-6.64,4.15,5.92,9.81,-3.82,-2.50,8.76,9.88
-6.67,4.16,5.94,9.85,-3.77,-2.46,8.80,9.88
-6.70,4.22,5.95,9.91,-3.78,-2.42,8.80,9.88
-6.71,4.28,5.90,9.91,-3.82,-2.41,8.72,9.82
-6.69,4.23,5.86,9.85,-3.84,-2.39,8.69,9.80
-6.62,4.10,5.86,9.75,-3.82,-2.39,8.69,9.79
-6.57,4.01,5.92,9.71,-3.77,-2.41,8.73,9.81
-6.67,4.09,5.93,9.82,-3.79,-2.47,8.73,9.83
-6.66,4.22,5.91,9.86,-3.77,-2.48,8.75,9.85
-6.61,4.23,5.94,9.84,-3.78,-2.52,8.78,9.88
-6.58,4.18,5.94,9.80,-3.81,-2.52,8.80,9.91
-6.62,4.14,5.96,9.83,-3.85,-2.48,8.71,9.84
-6.65,4.08,5.97,9.83,-3.85,-2.49,8.68,9.81
-6.60,4.05,5.96,9.77,-3.84,-2.52,8.69,9.83
-6.59,4.06,5.95,9.76,-3.81,-2.55,8.74,9.87
-6.61,4.10,5.92,9.77,-3.86,-2.44,8.67,9.80
-6.66,4.13,5.89,9.80,-3.81,-2.40,8.63,9.73
-6.66,4.14,5.88,9.80,-3.84,-2.40,8.65,9.77
-6.57,4.06,5.92,9.74,-3.79,-2.46,8.76,9.86
-6.54,4.06,5.99,9.76,-3.74,-2.58,8.84,9.94
-6.64,4.24,5.99,9.90,-3.82,-2.53,8.90,10.01
-6.75,4.36,5.90,9.97,-3.78,-2.44,8.82,9.90
-6.76,4.32,5.86,9.93,-3.77,-2.37,8.76,9.83
-6.60,4.10,5.89,9.75,-3.78,-2.39,8.69,9.78
-6.56,3.93,5.92,9.67,-3.84,-2.44,8.67,9.79
-6.56,3.95,5.92,9.68,-3.82,-2.40,8.64,9.74
-6.71,4.07,5.89,9.81,-3.82,-2.37,8.63,9.73
-6.65,4.20,5.89,9.83,-3.81,-2.43,8.70,9.80
-6.52,4.12,5.97,9.75,-3.81,-2.62,8.89,10.02
-6.52,4.09,6.04,9.79,-3.82,-2.65,8.90,10.04
-6.68,4.20,6.04,9.94,-3.85,-2.55,8.84,9.97
-6.78,4.26,5.93,9.96,-3.82,-2.47,8.70,9.82
-6.63,4.17,5.88,9.79,-3.82,-2.43,8.64,9.76
-6.47,3.97,5.89,9.61,-3.85,-2.43,8.65,9.78
-6.56,3.89,5.89,9.63,-3.84,-2.39,8.62,9.73
-6.68,4.00,5.90,9.77,-3.82,-2.36,8.62,9.72
-6.69,4.20,5.88,9.85,-3.82,-2.40,8.71,9.80
-6.59,4.24,5.95,9.84,-3.77,-2.55,8.91,10.01
-6.61,4.24,5.98,9.87,-3.75,-2.55,8.91,10.00
-6.72,4.29,5.99,9.97,-3.82,-2.52,8.84,9.95
-6.78,4.30,5.91,9.97,-3.82,-2.42,8.74,9.84
-6.63,4.13,5.88,9.78,-3.84,-2.42,8.68,9.79
-6.52,3.99,5.90,9.66,-3.81,-2.43,8.64,9.75
-6.53,3.93,5.90,9.64,-3.83,-2.43,8.64,9.76
-6.63,4.01,5.92,9.76,-3.83,-2.44,8.65,9.77
-6.66,4.15,5.94,9.84,-3.80,-2.47,8.71,9.82
-6.61,4.21,5.94,9.84,-3.81,-2.53,8.77,9.89
-6.63,4.15,5.96,9.84,-3.84,-2.53,8.77,9.91
-6.67,4.13,5.97,9.86,-3.83,-2.49,8.78,9.90
-6.68,4.14,5.96,9.87,-3.77,-2.50,8.78,9.87
-6.63,4.16,5.92,9.81,-3.81,-2.47,8.73,9.84
-6.54,4.15,5.87,9.72,-3.78,-2.43,8.74,9.83
-6.59,4.18,5.89,9.77,-3.74,-2.43,8.75,9.82
-6.64,4.18,5.93,9.83,-3.78,-2.44,8.76,9.85
-6.70,4.22,5.90,9.88,-3.82,-2.44,8.74,9.85
-6.73,4.15,5.89,9.86,-3.86,-2.44,8.73,9.85
-6.64,4.08,5.89,9.77,-3.84,-2.43,8.67,9.78
-6.65,4.05,5.90,9.77,-3.82,-2.43,8.69,9.79
-6.63,4.08,5.92,9.78,-3.81,-2.45,8.70,9.80
-6.66,4.12,5.95,9.83,-3.78,-2.56,8.79,9.90
-6.64,4.24,5.99,9.90,-3.76,-2.59,8.85,9.96
-6.65,4.25,5.96,9.89,-3.82,-2.57,8.84,9.97
-6.69,4.24,5.92,9.89,-3.82,-2.49,8.77,9.88
-6.64,4.15,5.90,9.81,-3.82,-2.39,8.64,9.74
-6.65,4.05,5.89,9.76,-3.82,-2.41,8.59,9.71
-6.57,3.99,5.88,9.67,-3.83,-2.41,8.66,9.78
-6.58,4.07,5.88,9.72,-3.78,-2.41,8.69,9.78
-6.67,4.15,5.89,9.82,-3.79,-2.41,8.71,9.79
-6.68,4.21,5.89,9.85,-3.79,-2.45,8.72,9.82
-6.63,4.19,5.90,9.81,-3.84,-2.53,8.75,9.88
-6.57,4.09,5.99,9.78,-3.83,-2.58,8.77,9.91
-6.60,4.08,6.00,9.81,-3.84,-2.58,8.78,9.92
-6.66,4.14,5.98,9.86,-3.82,-2.48,8.81,9.91
-6.70,4.25,5.97,9.93,-3.79,-2.48,8.76,9.86
-6.64,4.24,5.91,9.84,-3.82,-2.48,8.74,9.85
-6.56,4.11,5.86,9.71,-3.84,-2.43,8.70,9.81
-6.61,4.05,5.83,9.70,-3.82,-2.34,8.66,9.75
-6.70,4.01,5.89,9.78,-3.78,-2.35,8.70,9.77
-6.68,4.09,5.89,9.80,-3.78,-2.42,8.74,9.82
-6.67,4.22,5.90,9.85,-3.83,-2.49,8.81,9.92
-6.64,4.26,5.94,9.88,-3.82,-2.54,8.80,9.93
-6.66,4.25,6.01,9.92,-3.77,-2.57,8.87,9.97
-6.69,4.24,6.00,9.94,-3.78,-2.52,8.85,9.95
-6.67,4.22,5.93,9.87,-3.82,-2.48,8.73,9.84
-6.67,4.13,5.85,9.78,-3.84,-2.37,8.68,9.78
-6.59,4.05,5.82,9.68,-3.81,-2.34,8.62,9.71
-6.59,3.95,5.87,9.67,-3.80,-2.43,8.62,9.72
-6.59,3.97,5.88,9.68,-3.84,-2.42,8.69,9.80
-6.66,4.10,5.92,9.80,-3.83,-2.48,8.73,9.85
-6.65,4.21,5.96,9.87,-3.81,-2.53,8.75,9.88
-6.62,4.22,5.99,9.87,-3.80,-2.59,8.82,9.95
-6.62,4.18,6.04,9.89,-3.78,-2.59,8.84,9.96
-6.63,4.19,6.00,9.88,-3.81,-2.55,8.79,9.91
-6.70,4.19,5.93,9.87,-3.81,-2.47,8.76,9.87
-6.64,4.17,5.89,9.81,-3.77,-2.43,8.71,9.80
-6.61,4.10,5.89,9.76,-3.83,-2.44,8.66,9.78
-6.61,4.11,5.87,9.74,-3.81,-2.41,8.73,9.83
-6.65,4.15,5.87,9.79,-3.79,-2.38,8.68,9.77
-6.68,4.13,5.87,9.81,-3.82,-2.36,8.68,9.78
-6.64,4.13,5.89,9.79,-3.83,-2.47,8.71,9.83
-6.61,4.14,5.95,9.81,-3.84,-2.49,8.78,9.90
-6.62,4.11,5.95,9.81,-3.83,-2.52,8.75,9.87
-6.64,4.16,5.98,9.85,-3.80,-2.50,8.79,9.90
-6.65,4.20,5.97,9.87,-3.78,-2.55,8.76,9.88
-6.62,4.16,5.94,9.82,-3.85,-2.54,8.70,9.85
-6.66,4.10,5.91,9.81,-3.84,-2.44,8.68,9.80
-6.64,4.02,5.89,9.74,-3.86,-2.39,8.61,9.74
-6.62,3.99,5.91,9.73,-3.81,-2.41,8.62,9.72
-6.64,4.06,5.91,9.77,-3.87,-2.42,8.67,9.79
-6.65,4.16,5.88,9.81,-3.83,-2.45,8.75,9.86
-6.64,4.22,5.93,9.85,-3.81,-2.47,8.74,9.85
-6.63,4.22,5.96,9.86,-3.77,-2.47,8.82,9.91
-6.63,4.21,5.98,9.87,-3.81,-2.55,8.84,9.96
-6.69,4.22,5.95,9.90,-3.80,-2.47,8.82,9.92
-6.70,4.24,5.89,9.88,-3.82,-2.41,8.73,9.83
-6.63,4.14,5.88,9.78,-3.79,-2.37,8.69,9.77
-6.59,4.03,5.88,9.71,-3.76,-2.38,8.71,9.78
-6.58,4.00,5.88,9.69,-3.82,-2.43,8.67,9.78
-6.65,4.14,5.90,9.80,-3.83,-2.43,8.68,9.79
-6.64,4.19,5.88,9.81,-3.82,-2.46,8.70,9.82
-6.61,4.13,5.93,9.80,-3.81,-2.47,8.72,9.83
-6.60,4.09,5.94,9.78,-3.85,-2.51,8.77,9.90
-6.64,4.08,5.98,9.82,-3.83,-2.50,8.73,9.86
-6.66,4.15,6.00,9.88,-3.78,-2.51,8.82,9.92
-6.62,4.18,5.95,9.84,-3.78,-2.52,8.83,9.93
-6.68,4.23,5.89,9.85,-3.82,-2.49,8.72,9.84
-6.72,4.22,5.86,9.86,-3.87,-2.33,8.62,9.73
-6.67,4.11,5.84,9.77,-3.86,-2.36,8.60,9.71
-6.53,3.90,5.87,9.61,-3.86,-2.44,8.63,9.77
-6.54,3.92,5.94,9.67,-3.83,-2.44,8.68,9.80
-6.69,4.11,5.93,9.84,-3.80,-2.48,8.78,9.89
-6.71,4.28,5.92,9.92,-3.80,-2.55,8.83,9.94
-6.63,4.31,5.94,9.89,-3.80,-2.57,8.83,9.95
-6.59,4.20,5.97,9.83,-3.80,-2.55,8.81,9.93
-6.65,4.13,5.95,9.83,-3.80,-2.45,8.75,9.84
-6.70,4.13,5.93,9.86,-3.85,-2.36,8.71,9.81
-6.70,4.18,5.88,9.84,-3.79,-2.35,8.69,9.77
-6.64,4.14,5.82,9.76,-3.82,-2.31,8.67,9.76
-6.61,4.12,5.83,9.73,-3.80,-2.35,8.69,9.77
-6.62,4.09,5.88,9.75,-3.77,-2.43,8.74,9.82
-6.67,4.15,5.93,9.85,-3.84,-2.48,8.79,9.91
-6.68,4.23,5.94,9.89,-3.86,-2.50,8.75,9.89
-6.64,4.15,5.97,9.84,-3.80,-2.55,8.76,9.88
-6.58,4.11,5.98,9.79,-3.79,-2.59,8.76,9.89
-6.62,4.07,5.97,9.80,-3.84,-2.51,8.70,9.84
-6.62,4.09,5.94,9.79,-3.85,-2.51,8.65,9.80
-6.61,4.10,5.92,9.78,-3.82,-2.48,8.66,9.78
-6.55,4.10,5.93,9.74,-3.80,-2.49,8.71,9.82
-6.60,4.13,5.94,9.80,-3.79,-2.52,8.79,9.89
-6.73,4.20,5.90,9.89,-3.82,-2.48,8.75,9.86
-6.70,4.22,5.92,9.89,-3.82,-2.46,8.71,9.82
-6.63,4.15,5.92,9.81,-3.75,-2.47,8.79,9.87
-6.59,4.11,5.94,9.78,-3.79,-2.48,8.81,9.90
-6.64,4.17,5.93,9.83,-3.77,-2.47,8.76,9.85
-6.71,4.26,5.90,9.90,-3.83,-2.46,8.74,9.86
-6.69,4.27,5.87,9.88,-3.82,-2.42,8.71,9.81
-6.66,4.14,5.86,9.78,-3.81,-2.43,8.66,9.77
-6.61,3.98,5.91,9.72,-3.84,-2.43,8.66,9.78
-6.61,3.99,5.96,9.75,-3.84,-2.51,8.70,9.83
-6.66,4.09,5.94,9.81,-3.81,-2.55,8.75,9.88
-6.65,4.23,5.96,9.89,-3.81,-2.57,8.83,9.96
-6.67,4.31,5.91,9.90,-3.74,-2.52,8.76,9.85
-6.64,4.23,5.90,9.84,-3.81,-2.46,8.71,9.82
-6.64,4.12,5.92,9.80,-3.84,-2.43,8.69,9.80
-6.64,4.02,5.92,9.76,-3.83,-2.44,8.70,9.81
-6.64,4.06,5.90,9.77,-3.81,-2.43,8.71,9.82
-6.66,4.18,5.88,9.82,-3.78,-2.42,8.72,9.81
-6.65,4.23,5.90,9.85,-3.77,-2.46,8.78,9.87
-6.60,4.23,5.93,9.83,-3.79,-2.52,8.85,9.95
-6.64,4.21,5.95,9.86,-3.80,-2.52,8.80,9.91
-6.65,4.21,5.91,9.84,-3.82,-2.44,8.73,9.84
-6.65,4.18,5.86,9.80,-3.79,-2.41,8.68,9.77
-6.61,4.09,5.85,9.73,-3.83,-2.43,8.68,9.79
-6.62,4.08,5.88,9.74,-3.81,-2.43,8.65,9.76
-6.60,4.09,5.86,9.73,-3.81,-2.42,8.70,9.80
-6.64,4.12,5.88,9.78,-3.82,-2.43,8.73,9.83
-6.69,4.19,5.94,9.87,-3.79,-2.49,8.78,9.89
-6.66,4.18,5.96,9.86,-3.79,-2.57,8.80,9.92
-6.59,4.20,6.01,9.86,-3.77,-2.61,8.85,9.97
-6.60,4.25,5.99,9.87,-3.76,-2.59,8.84,9.95
-6.64,4.30,5.93,9.88,-3.79,-2.48,8.78,9.88
-6.68,4.24,5.89,9.86,-3.82,-2.41,8.63,9.74
-6.62,4.05,5.87,9.73,-3.87,-2.41,8.59,9.73
-6.55,3.91,5.90,9.65,-3.81,-2.45,8.63,9.75
-6.59,3.91,5.91,9.68,-3.86,-2.42,8.68,9.80
-6.68,4.08,5.90,9.80,-3.83,-2.42,8.71,9.81
-6.70,4.32,5.90,9.91,-3.79,-2.48,8.81,9.91
-6.66,4.32,5.93,9.90,-3.79,-2.56,8.81,9.92
-6.66,4.24,5.94,9.88,-3.83,-2.51,8.80,9.92
-6.69,4.18,5.93,9.86,-3.83,-2.44,8.74,9.85
-6.70,4.13,5.87,9.82,-3.77,-2.35,8.73,9.80
-6.63,4.13,5.83,9.75,-3.75,-2.38,8.66,9.74
-6.58,4.13,5.82,9.70,-3.82,-2.38,8.62,9.72
-6.55,4.09,5.80,9.66,-3.80,-2.43,8.66,9.76
-6.58,4.04,5.91,9.72,-3.83,-2.53,8.68,9.82
-6.69,4.07,5.97,9.85,-3.85,-2.54,8.73,9.87
-6.68,4.16,5.99,9.89,-3.83,-2.55,8.85,9.97
-6.64,4.21,5.98,9.88,-3.80,-2.55,8.82,9.94
-6.65,4.23,5.95,9.88,-3.77,-2.57,8.84,9.95
-6.64,4.20,5.93,9.84,-3.79,-2.52,8.76,9.88
-6.66,4.16,5.89,9.81,-3.82,-2.45,8.69,9.80
-6.66,4.14,5.85,9.78,-3.79,-2.44,8.63,9.74
-6.62,4.09,5.87,9.75,-3.79,-2.44,8.65,9.75
-6.57,4.07,5.90,9.73,-3.81,-2.48,8.74,9.85
-6.61,4.10,5.92,9.78,-3.80,-2.49,8.75,9.86
-6.70,4.21,5.94,9.90,-3.83,-2.52,8.82,9.94
-6.70,4.25,5.96,9.92,-3.77,-2.56,8.79,9.90
-6.65,4.24,5.92,9.86,-3.81,-2.57,8.76,9.89
-6.63,4.15,5.90,9.79,-3.85,-2.46,8.69,9.82
-6.65,4.07,5.88,9.76,-3.85,-2.41,8.64,9.76
-6.62,4.05,5.91,9.76,-3.76,-2.44,8.68,9.77
-6.59,4.08,5.91,9.75,-3.77,-2.49,8.76,9.86
-6.60,4.19,5.91,9.80,-3.80,-2.50,8.77,9.88
-6.70,4.29,5.89,9.89,-3.83,-2.48,8.76,9.88
-6.69,4.30,5.92,9.92,-3.74,-2.53,8.83,9.92
-6.58,4.12,5.97,9.79,-3.86,-2.55,8.71,9.87
-6.60,4.09,5.94,9.78,-3.85,-2.52,8.74,9.88
-6.66,4.14,5.92,9.83,-3.78,-2.51,8.72,9.83
-6.65,4.17,5.90,9.82,-3.78,-2.46,8.67,9.77
-6.61,4.15,5.85,9.75,-3.82,-2.44,8.70,9.81
-6.62,4.14,5.88,9.77,-3.80,-2.45,8.72,9.83
-6.65,4.16,5.89,9.81,-3.77,-2.49,8.77,9.87
-6.66,4.17,5.92,9.84,-3.78,-2.48,8.79,9.89
-6.67,4.24,5.96,9.90,-3.81,-2.50,8.76,9.88
-6.66,4.28,5.86,9.85,-3.81,-2.49,8.71,9.83
-6.63,4.21,5.86,9.80,-3.78,-2.44,8.70,9.79
-6.58,4.09,5.93,9.76,-3.82,-2.45,8.68,9.80
-6.57,4.01,5.94,9.72,-3.84,-2.54,8.68,9.83
-6.60,4.07,5.88,9.73,-3.84,-2.48,8.68,9.81
-6.67,4.18,5.92,9.85,-3.82,-2.48,8.68,9.80
-6.63,4.18,5.91,9.82,-3.81,-2.53,8.69,9.82
-6.59,4.09,5.94,9.77,-3.82,-2.56,8.70,9.84
-6.60,4.08,5.95,9.77,-3.81,-2.55,8.76,9.89
-6.64,4.12,5.94,9.82,-3.85,-2.51,8.75,9.88
-6.69,4.20,5.91,9.86,-3.82,-2.46,8.76,9.87
-6.64,4.19,5.85,9.79,-3.82,-2.43,8.79,9.88
-6.70,4.18,5.85,9.83,-3.79,-2.43,8.71,9.80
-6.71,4.21,5.85,9.85,-3.79,-2.38,8.72,9.80
-6.67,4.23,5.85,9.83,-3.80,-2.43,8.74,9.84
-6.59,4.18,5.90,9.79,-3.76,-2.47,8.77,9.86
-6.61,4.17,5.94,9.82,-3.74,-2.52,8.79,9.88
-6.65,4.24,5.94,9.87,-3.79,-2.54,8.76,9.88
-6.70,4.28,5.86,9.88,-3.83,-2.47,8.71,9.84
-6.69,4.14,5.87,9.81,-3.83,-2.43,8.67,9.79
-6.56,4.04,5.91,9.71,-3.81,-2.47,8.68,9.80
-6.57,4.04,5.95,9.74,-3.78,-2.53,8.81,9.92
-6.60,4.11,5.99,9.81,-3.73,-2.57,8.84,9.94
-6.67,4.30,5.93,9.91,-3.77,-2.57,8.85,9.96
-6.71,4.38,5.89,9.95,-3.78,-2.48,8.76,9.86
-6.66,4.25,5.85,9.83,-3.82,-2.46,8.68,9.80
-6.58,4.07,5.88,9.72,-3.82,-2.43,8.67,9.78
-6.62,3.97,5.88,9.70,-3.78,-2.44,8.71,9.80
-6.64,4.05,5.91,9.77,-3.82,-2.44,8.67,9.78
-6.62,4.29,5.87,9.83,-3.81,-2.50,8.73,9.85
-6.58,4.26,5.92,9.82,-3.79,-2.55,8.79,9.91
-6.60,4.23,5.92,9.82,-3.80,-2.53,8.80,9.91
-6.70,4.20,5.92,9.88,-3.82,-2.48,8.73,9.84
-6.69,4.16,5.94,9.87,-3.81,-2.51,8.73,9.85
-6.59,4.11,5.95,9.79,-3.78,-2.57,8.82,9.94
-6.62,4.18,5.90,9.80,-3.82,-2.46,8.75,9.86
-6.75,4.25,5.87,9.90,-3.83,-2.36,8.66,9.76
-6.75,4.27,5.81,9.88,-3.84,-2.34,8.62,9.73
-6.64,4.18,5.87,9.79,-3.82,-2.44,8.70,9.81
-6.61,4.03,5.89,9.72,-3.83,-2.50,8.72,9.84
-6.70,4.12,5.91,9.84,-3.81,-2.44,8.72,9.82
-6.72,4.23,5.91,9.90,-3.80,-2.48,8.72,9.83
-6.62,4.27,5.92,9.86,-3.81,-2.57,8.73,9.87
-6.54,4.24,5.94,9.80,-3.83,-2.60,8.71,9.87
-6.56,4.04,5.94,9.74,-3.88,-2.52,8.68,9.84
-6.66,4.04,5.96,9.81,-3.87,-2.48,8.65,9.79
-6.70,4.11,5.92,9.84,-3.79,-2.46,8.67,9.77
-6.64,4.16,5.88,9.79,-3.82,-2.50,8.71,9.83
-6.61,4.21,5.89,9.81,-3.77,-2.46,8.80,9.89
-6.66,4.20,5.90,9.84,-3.72,-2.48,8.82,9.89
-6.71,4.28,5.90,9.91,-3.77,-2.43,8.79,9.87
-6.71,4.31,5.87,9.90,-3.78,-2.43,8.80,9.88
-6.68,4.28,5.84,9.85,-3.79,-2.45,8.73,9.83
-6.60,4.16,5.86,9.75,-3.80,-2.44,8.72,9.82
-6.65,4.07,5.85,9.75,-3.82,-2.41,8.70,9.81
-6.65,4.04,5.89,9.75,-3.84,-2.45,8.69,9.81
-6.67,4.13,5.93,9.83,-3.78,-2.47,8.77,9.86
-6.64,4.24,5.92,9.85,-3.79,-2.56,8.79,9.91
-6.66,4.27,5.94,9.89,-3.79,-2.58,8.79,9.91
-6.65,4.24,5.91,9.86,-3.84,-2.51,8.72,9.85
-6.66,4.14,5.87,9.79,-3.86,-2.48,8.63,9.77
-6.59,4.05,5.89,9.72,-3.80,-2.49,8.68,9.79
-6.53,3.99,5.93,9.68,-3.80,-2.52,8.72,9.84
-6.63,4.11,5.90,9.78,-3.83,-2.51,8.73,9.86
-6.71,4.29,5.86,9.89,-3.85,-2.42,8.72,9.83
-6.71,4.32,5.87,9.91,-3.83,-2.43,8.78,9.88
-6.65,4.19,5.87,9.81,-3.81,-2.50,8.79,9.91
-6.58,4.11,5.90,9.75,-3.83,-2.52,8.77,9.89
-6.71,4.15,5.89,9.85,-3.81,-2.46,8.74,9.85
-6.73,4.24,5.89,9.89,-3.79,-2.39,8.75,9.83
-6.66,4.24,5.92,9.87,-3.74,-2.52,8.79,9.88
-6.59,4.20,5.88,9.78,-3.78,-2.51,8.79,9.89
-6.65,4.22,5.84,9.81,-3.84,-2.45,8.69,9.81
-6.69,4.14,5.86,9.81,-3.85,-2.40,8.64,9.76
-6.59,4.07,5.91,9.75,-3.81,-2.49,8.68,9.80
-6.53,4.02,5.94,9.70,-3.78,-2.55,8.74,9.86
-6.60,4.12,5.96,9.80,-3.78,-2.54,8.78,9.89
-6.68,4.30,5.91,9.90,-3.80,-2.53,8.76,9.88
-6.66,4.30,5.89,9.88,-3.80,-2.49,8.73,9.84
-6.62,4.18,5.91,9.81,-3.80,-2.49,8.77,9.88
-6.63,4.08,5.91,9.77,-3.82,-2.45,8.73,9.84
-6.68,4.14,5.89,9.83,-3.84,-2.38,8.68,9.79
-6.72,4.20,5.83,9.84,-3.83,-2.37,8.68,9.78
-6.63,4.19,5.82,9.76,-3.76,-2.43,8.70,9.79
-6.59,4.14,5.87,9.75,-3.77,-2.46,8.76,9.85
-6.63,4.17,5.91,9.82,-3.78,-2.48,8.79,9.88
-6.69,4.25,5.92,9.89,-3.78,-2.53,8.79,9.90
-6.65,4.27,5.93,9.88,-3.82,-2.55,8.76,9.89
-6.60,4.17,5.91,9.80,-3.84,-2.51,8.72,9.86
-6.59,4.09,5.92,9.75,-3.80,-2.46,8.68,9.79
-6.64,4.04,5.92,9.77,-3.81,-2.45,8.66,9.77
-6.66,4.10,5.89,9.79,-3.81,-2.44,8.67,9.78
-6.61,4.19,5.89,9.79,-3.78,-2.49,8.77,9.87
-6.61,4.24,5.94,9.85,-3.77,-2.53,8.79,9.90
-6.66,4.26,5.91,9.87,-3.82,-2.52,8.78,9.90
-6.72,4.25,5.88,9.89,-3.88,-2.43,8.68,9.82
-6.70,4.20,5.86,9.84,-3.84,-2.42,8.64,9.76
-6.56,4.01,5.89,9.68,-3.83,-2.47,8.66,9.79
-6.54,3.98,5.91,9.67,-3.77,-2.49,8.73,9.83
-6.61,4.14,5.92,9.79,-3.79,-2.46,8.81,9.90
-6.72,4.36,5.89,9.95,-3.75,-2.46,8.82,9.89
-6.72,4.39,5.90,9.96,-3.79,-2.52,8.86,9.96
-6.62,4.26,5.90,9.84,-3.77,-2.57,8.85,9.96
-6.64,4.17,5.90,9.81,-3.78,-2.45,8.78,9.87
-6.73,4.17,5.86,9.85,-3.83,-2.35,8.65,9.75
-6.71,4.17,5.82,9.81,-3.84,-2.34,8.60,9.71
-6.55,4.05,5.82,9.65,-3.83,-2.42,8.65,9.77
-6.53,4.02,5.88,9.66,-3.84,-2.49,8.69,9.82
-6.63,4.07,5.93,9.78,-3.84,-2.51,8.76,9.88
-6.71,4.19,5.96,9.91,-3.82,-2.54,8.78,9.91
-6.71,4.31,5.96,9.96,-3.80,-2.57,8.81,9.93
-6.65,4.26,5.91,9.86,-3.85,-2.56,8.82,9.96
-6.62,4.16,5.91,9.80,-3.80,-2.48,8.75,9.85
-6.65,4.08,5.91,9.78,-3.79,-2.44,8.75,9.84
-6.64,4.08,5.86,9.75,-3.80,-2.38,8.73,9.82
-6.71,4.20,5.83,9.83,-3.83,-2.37,8.71,9.81
-6.68,4.22,5.84,9.83,-3.81,-2.41,8.71,9.80
-6.67,4.18,5.84,9.80,-3.84,-2.41,8.71,9.82
-6.65,4.10,5.89,9.79,-3.79,-2.44,8.75,9.84
-6.68,4.12,5.93,9.84,-3.80,-2.49,8.73,9.84
-6.70,4.21,5.90,9.87,-3.85,-2.50,8.73,9.86
-6.65,4.21,5.88,9.82,-3.79,-2.46,8.71,9.81
-6.58,4.17,5.91,9.78,-3.80,-2.53,8.73,9.85
-6.55,4.08,5.92,9.72,-3.85,-2.56,8.71,9.86
-6.62,4.11,5.90,9.78,-3.85,-2.46,8.66,9.79
-6.66,4.15,5.88,9.81,-3.88,-2.40,8.64,9.77
-6.59,4.12,5.86,9.74,-3.79,-2.43,8.69,9.79
-6.61,4.08,5.88,9.75,-3.83,-2.47,8.74,9.86
-6.67,4.11,5.89,9.80,-3.82,-2.42,8.75,9.85
-6.75,4.24,5.87,9.90,-3.82,-2.42,8.81,9.90
-6.74,4.27,5.84,9.89,-3.82,-2.39,8.76,9.85
-6.62,4.20,5.87,9.79,-3.82,-2.41,8.74,9.83
-6.61,4.16,5.86,9.76,-3.79,-2.42,8.73,9.82
-6.66,4.14,5.87,9.80,-3.80,-2.40,8.74,9.83
-6.70,4.19,5.87,9.84,-3.80,-2.43,8.70,9.80
-6.60,4.18,5.84,9.76,-3.84,-2.49,8.68,9.82
-6.59,4.11,5.91,9.76,-3.87,-2.54,8.68,9.84
-6.58,4.10,5.95,9.78,-3.82,-2.54,8.75,9.88
-6.64,4.12,5.97,9.83,-3.86,-2.56,8.75,9.90
-6.69,4.17,5.92,9.86,-3.84,-2.54,8.78,9.91
-6.65,4.24,5.92,9.87,-3.82,-2.53,8.79,9.92
-6.66,4.21,5.88,9.83,-3.80,-2.46,8.78,9.88
-6.68,4.21,5.87,9.84,-3.77,-2.43,8.76,9.84
-6.68,4.21,5.84,9.82,-3.78,-2.37,8.75,9.82
-6.69,4.18,5.82,9.80,-3.81,-2.39,8.71,9.80
-6.66,4.22,5.80,9.78,-3.80,-2.40,8.71,9.80
-6.68,4.15,5.83,9.79,-3.82,-2.43,8.77,9.87
-6.67,4.16,5.88,9.82,-3.80,-2.44,8.72,9.82
-6.63,4.14,5.91,9.80,-3.78,-2.46,8.74,9.84
-6.66,4.13,5.90,9.81,-3.85,-2.50,8.71,9.85
-6.65,4.18,5.90,9.82,-3.86,-2.52,8.69,9.84
-6.65,4.15,5.92,9.82,-3.82,-2.53,8.77,9.90
-6.61,4.09,5.94,9.78,-3.84,-2.54,8.76,9.90
-6.62,4.12,5.87,9.76,-3.80,-2.52,8.75,9.87
-6.67,4.18,5.83,9.80,-3.86,-2.32,8.63,9.73
-6.73,4.22,5.86,9.87,-3.80,-2.39,8.72,9.80
-6.64,4.20,5.84,9.79,-3.78,-2.49,8.75,9.85
-6.57,4.13,5.86,9.73,-3.85,-2.48,8.77,9.90
-6.65,4.09,5.86,9.76,-3.83,-2.43,8.68,9.80
-6.76,4.15,5.86,9.86,-3.82,-2.35,8.70,9.79
-6.71,4.20,5.86,9.85,-3.84,-2.44,8.71,9.83
-6.65,4.17,5.90,9.82,-3.81,-2.54,8.85,9.96
-6.64,4.23,5.91,9.84,-3.81,-2.51,8.86,9.96
-6.72,4.33,5.90,9.94,-3.74,-2.42,8.88,9.94
-6.78,4.37,5.83,9.96,-3.78,-2.38,8.78,9.85
-6.70,4.28,5.78,9.83,-3.82,-2.36,8.71,9.79
-6.62,4.12,5.77,9.70,-3.87,-2.35,8.64,9.76
-6.64,4.04,5.78,9.69,-3.83,-2.35,8.63,9.73
-6.64,4.02,5.83,9.71,-3.81,-2.36,8.65,9.74
-6.68,4.15,5.87,9.82,-3.83,-2.44,8.71,9.83
-6.66,4.20,5.89,9.84,-3.82,-2.51,8.78,9.89
-6.64,4.25,5.93,9.86,-3.83,-2.59,8.80,9.94
-6.63,4.24,5.95,9.86,-3.83,-2.55,8.79,9.92
-6.67,4.21,5.96,9.89,-3.78,-2.51,8.82,9.92
-6.66,4.23,5.91,9.86,-3.80,-2.52,8.77,9.88
-6.68,4.22,5.85,9.83,-3.83,-2.47,8.70,9.83
-6.68,4.17,5.77,9.76,-3.82,-2.35,8.65,9.74
-6.60,4.07,5.82,9.69,-3.81,-2.39,8.63,9.73
-6.59,4.02,5.84,9.68,-3.79,-2.40,8.71,9.80
-6.70,4.16,5.86,9.83,-3.83,-2.43,8.74,9.84
-6.76,4.32,5.84,9.92,-3.81,-2.40,8.78,9.87
-6.73,4.36,5.83,9.91,-3.79,-2.44,8.81,9.89
-6.66,4.27,5.83,9.83,-3.80,-2.48,8.78,9.89
-6.65,4.15,5.87,9.79,-3.78,-2.44,8.80,9.89
-6.70,4.17,5.86,9.83,-3.80,-2.45,8.78,9.87
-6.72,4.20,5.84,9.84,-3.87,-2.38,8.68,9.80
-6.63,4.20,5.83,9.78,-3.84,-2.41,8.70,9.81
-6.59,4.14,5.81,9.71,-3.85,-2.40,8.74,9.85
-6.66,4.11,5.87,9.78,-3.86,-2.45,8.75,9.87
-6.71,4.17,5.88,9.85,-3.85,-2.41,8.77,9.88
-6.74,4.22,5.86,9.88,-3.83,-2.45,8.78,9.89
-6.62,4.24,5.89,9.82,-3.78,-2.48,8.82,9.91
-6.63,4.21,5.88,9.81,-3.78,-2.51,8.82,9.92
-6.68,4.23,5.85,9.84,-3.81,-2.44,8.76,9.86
-6.70,4.23,5.84,9.84,-3.85,-2.38,8.67,9.78
-6.65,4.14,5.82,9.76,-3.83,-2.40,8.67,9.78
-6.61,4.05,5.85,9.71,-3.88,-2.42,8.66,9.79
-6.65,4.07,5.83,9.74,-3.89,-2.38,8.67,9.79
-6.70,4.13,5.85,9.81,-3.85,-2.39,8.71,9.81
-6.64,4.17,5.91,9.81,-3.83,-2.48,8.78,9.89
-6.59,4.20,5.95,9.82,-3.78,-2.59,8.90,10.01
-6.65,4.28,5.96,9.90,-3.82,-2.58,8.88,10.00
-6.77,4.37,5.84,9.95,-3.83,-2.46,8.81,9.91
-6.72,4.24,5.82,9.85,-3.85,-2.35,8.68,9.78
-6.62,4.06,5.81,9.70,-3.80,-2.35,8.65,9.74
-6.56,3.94,5.81,9.61,-3.81,-2.33,8.62,9.70
-6.62,4.03,5.80,9.69,-3.84,-2.35,8.62,9.72
-6.68,4.23,5.85,9.83,-3.82,-2.44,8.71,9.82
-6.64,4.26,5.88,9.84,-3.83,-2.51,8.80,9.92
-6.63,4.21,5.99,9.88,-3.80,-2.58,8.90,10.02
-6.71,4.24,5.98,9.94,-3.82,-2.56,8.87,9.99
-6.71,4.29,5.91,9.92,-3.80,-2.50,8.79,9.90
-6.68,4.20,5.83,9.81,-3.84,-2.39,8.71,9.81
-6.62,4.10,5.79,9.70,-3.83,-2.34,8.66,9.75
-6.62,4.04,5.83,9.70,-3.79,-2.34,8.64,9.72
-6.67,4.08,5.79,9.72,-3.81,-2.31,8.62,9.71
-6.67,4.16,5.79,9.77,-3.82,-2.38,8.68,9.78
-6.68,4.20,5.86,9.83,-3.83,-2.46,8.74,9.86
-6.64,4.23,5.93,9.85,-3.78,-2.52,8.89,9.98
-6.70,4.27,5.99,9.95,-3.80,-2.60,8.91,10.03
-6.74,4.35,5.92,9.97,-3.85,-2.52,8.81,9.94
-6.74,4.33,5.87,9.93,-3.85,-2.42,8.71,9.82
-6.60,4.09,5.79,9.68,-3.88,-2.39,8.57,9.71
-6.55,3.92,5.81,9.59,-3.86,-2.37,8.61,9.73
-6.61,3.89,5.86,9.65,-3.84,-2.37,8.63,9.74
-6.69,4.10,5.88,9.81,-3.81,-2.41,8.73,9.82
-6.73,4.29,5.86,9.90,-3.78,-2.46,8.80,9.89
-6.69,4.40,5.91,9.95,-3.78,-2.51,8.89,9.98
-6.64,4.34,5.91,9.89,-3.77,-2.55,8.90,10.00
-6.71,4.29,5.87,9.89,-3.80,-2.35,8.73,9.81
-6.78,4.21,5.82,9.88,-3.85,-2.30,8.60,9.70
-6.70,4.04,5.80,9.73,-3.84,-2.35,8.64,9.75
-6.55,3.98,5.82,9.62,-3.84,-2.46,8.66,9.79
-6.58,4.07,5.87,9.71,-3.82,-2.43,8.73,9.83
-6.70,4.21,5.95,9.90,-3.78,-2.54,8.84,9.94
-6.74,4.36,5.94,9.99,-3.82,-2.57,8.87,10.00
-6.71,4.36,5.87,9.93,-3.84,-2.53,8.86,9.98
-6.73,4.26,5.83,9.87,-3.82,-2.40,8.76,9.86
-6.72,4.12,5.81,9.79,-3.84,-2.32,8.64,9.74
-6.64,3.99,5.81,9.69,-3.84,-2.33,8.61,9.71
-6.60,3.95,5.81,9.64,-3.81,-2.36,8.67,9.76
-6.69,4.22,5.81,9.81,-3.84,-2.37,8.73,9.83
-6.76,4.33,5.86,9.94,-3.81,-2.42,8.79,9.88
-6.68,4.35,5.88,9.90,-3.83,-2.52,8.83,9.95
-6.67,4.23,5.92,9.87,-3.88,-2.51,8.81,9.95
-6.67,4.13,5.89,9.81,-3.90,-2.45,8.67,9.82
-6.67,4.08,5.84,9.76,-3.87,-2.42,8.61,9.75
-6.61,4.05,5.84,9.71,-3.80,-2.42,8.65,9.75
-6.54,4.11,5.86,9.70,-3.75,-2.46,8.76,9.84
-6.60,4.21,5.90,9.80,-3.76,-2.47,8.80,9.89
-6.69,4.36,5.87,9.91,-3.82,-2.48,8.82,9.93
-6.75,4.35,5.82,9.92,-3.85,-2.44,8.73,9.84
-6.70,4.20,5.83,9.82,-3.85,-2.42,8.76,9.87
-6.62,4.05,5.87,9.73,-3.79,-2.43,8.74,9.83
-6.65,4.05,5.86,9.75,-3.80,-2.40,8.74,9.83
-6.73,4.19,5.79,9.82,-3.78,-2.37,8.70,9.78
-6.68,4.29,5.79,9.83,-3.77,-2.41,8.71,9.79
-6.61,4.19,5.82,9.75,-3.81,-2.47,8.72,9.83
-6.60,4.10,5.89,9.75,-3.84,-2.50,8.74,9.87
-6.69,4.10,5.95,9.84,-3.84,-2.51,8.79,9.92
-6.72,4.27,5.92,9.92,-3.81,-2.54,8.82,9.93
-6.70,4.30,5.83,9.87,-3.82,-2.50,8.73,9.85
-6.64,4.23,5.82,9.79,-3.85,-2.42,8.70,9.82
-6.62,4.14,5.84,9.75,-3.84,-2.40,8.68,9.79
-6.66,4.03,5.89,9.76,-3.86,-2.40,8.71,9.82
-6.70,4.14,5.84,9.81,-3.85,-2.42,8.70,9.82
-6.70,4.22,5.83,9.83,-3.85,-2.40,8.72,9.83
-6.67,4.25,5.80,9.81,-3.83,-2.39,8.73,9.82
-6.68,4.18,5.81,9.79,-3.81,-2.38,8.73,9.81
-6.69,4.14,5.83,9.79,-3.87,-2.38,8.71,9.82
-6.70,4.12,5.89,9.83,-3.83,-2.43,8.77,9.87
-6.64,4.17,5.86,9.79,-3.79,-2.46,8.75,9.85
-6.68,4.24,5.88,9.86,-3.79,-2.44,8.76,9.86
-6.68,4.26,5.88,9.86,-3.81,-2.49,8.76,9.87
-6.65,4.23,5.88,9.84,-3.83,-2.49,8.77,9.89
-6.69,4.17,5.87,9.83,-3.83,-2.45,8.74,9.85
-6.67,4.14,5.89,9.81,-3.82,-2.43,8.79,9.89
-6.70,4.20,5.90,9.87,-3.82,-2.43,8.77,9.87
-6.70,4.22,5.85,9.84,-3.85,-2.43,8.69,9.81
-6.68,4.24,5.81,9.82,-3.85,-2.40,8.68,9.79
-6.66,4.10,5.83,9.75,-3.83,-2.38,8.69,9.79
-6.62,4.05,5.85,9.72,-3.83,-2.41,8.67,9.78
-6.68,4.07,5.87,9.78,-3.83,-2.42,8.76,9.86
-6.65,4.14,5.87,9.79,-3.81,-2.44,8.77,9.87
-6.67,4.27,5.87,9.86,-3.83,-2.44,8.77,9.87
-6.68,4.30,5.84,9.86,-3.81,-2.48,8.79,9.90
-6.69,4.24,5.88,9.86,-3.84,-2.46,8.79,9.90
-6.66,4.16,5.85,9.79,-3.85,-2.42,8.75,9.86
-6.69,4.13,5.89,9.83,-3.80,-2.44,8.77,9.87
-6.69,4.20,5.87,9.85,-3.81,-2.45,8.76,9.86
-6.69,4.23,5.82,9.82,-3.84,-2.46,8.72,9.84
-6.71,4.19,5.84,9.83,-3.84,-2.37,8.70,9.80
-6.66,4.14,5.84,9.78,-3.81,-2.43,8.69,9.80
-6.66,4.12,5.86,9.78,-3.82,-2.44,8.71,9.82
-6.68,4.13,5.88,9.81,-3.82,-2.43,8.73,9.84
-6.70,4.20,5.86,9.84,-3.82,-2.45,8.76,9.87
-6.70,4.24,5.85,9.86,-3.84,-2.42,8.76,9.86
-6.66,4.23,5.88,9.84,-3.77,-2.47,8.84,9.93
-6.65,4.21,5.91,9.84,-3.79,-2.52,8.82,9.93
-6.74,4.22,5.88,9.89,-3.83,-2.46,8.77,9.89
-6.74,4.26,5.83,9.87,-3.81,-2.37,8.71,9.79
-6.67,4.19,5.83,9.80,-3.85,-2.45,8.64,9.77
-6.61,4.07,5.85,9.72,-3.86,-2.47,8.70,9.83
-6.59,4.02,5.85,9.68,-3.85,-2.40,8.69,9.81
-6.71,4.16,5.86,9.83,-3.84,-2.38,8.70,9.80
-6.73,4.23,5.88,9.89,-3.80,-2.46,8.74,9.84
-6.67,4.28,5.87,9.86,-3.81,-2.52,8.77,9.89
-6.64,4.24,5.87,9.83,-3.79,-2.49,8.80,9.90
-6.67,4.22,5.83,9.82,-3.83,-2.43,8.71,9.82
-6.67,4.13,5.88,9.80,-3.80,-2.45,8.73,9.83
-6.61,4.12,5.87,9.76,-3.79,-2.44,8.78,9.87
-6.67,4.18,5.86,9.81,-3.81,-2.39,8.76,9.84
-6.76,4.26,5.80,9.87,-3.85,-2.33,8.72,9.82
-6.74,4.22,5.81,9.85,-3.85,-2.41,8.74,9.84
-6.61,4.08,5.86,9.73,-3.80,-2.45,8.75,9.85
-6.64,4.09,5.87,9.76,-3.84,-2.43,8.73,9.84
-6.73,4.20,5.88,9.87,-3.82,-2.42,8.73,9.84
-6.68,4.28,5.88,9.87,-3.84,-2.45,8.74,9.85
-6.63,4.22,5.85,9.80,-3.82,-2.46,8.75,9.85
-6.65,4.14,5.85,9.78,-3.85,-2.43,8.69,9.81
-6.74,4.09,5.86,9.82,-3.81,-2.36,8.70,9.78
-6.73,4.11,5.86,9.82,-3.86,-2.38,8.68,9.80
-6.66,4.14,5.83,9.77,-3.84,-2.46,8.75,9.86
-6.64,4.19,5.86,9.80,-3.82,-2.44,8.80,9.90
-6.74,4.29,5.85,9.90,-3.77,-2.41,8.79,9.86
-6.81,4.30,5.83,9.94,-3.81,-2.38,8.76,9.84
-6.75,4.27,5.83,9.89,-3.82,-2.40,8.76,9.85
-6.62,4.16,5.84,9.76,-3.78,-2.48,8.77,9.87
-6.64,4.09,5.89,9.77,-3.83,-2.42,8.71,9.82
-6.70,4.15,5.85,9.82,-3.89,-2.40,8.66,9.79
-6.73,4.21,5.82,9.84,-3.85,-2.37,8.66,9.77
-6.63,4.16,5.83,9.76,-3.81,-2.46,8.69,9.80
-6.56,4.09,5.91,9.73,-3.83,-2.51,8.73,9.86
-6.69,4.15,5.92,9.85,-3.85,-2.47,8.72,9.85
-6.77,4.25,5.87,9.92,-3.87,-2.44,8.72,9.85
-6.72,4.23,5.88,9.88,-3.81,-2.46,8.75,9.85
-6.62,4.18,5.87,9.79,-3.80,-2.49,8.75,9.85
-6.61,4.11,5.86,9.75,-3.86,-2.41,8.73,9.85
-6.68,4.17,5.86,9.81,-3.80,-2.40,8.78,9.86
-6.72,4.21,5.87,9.87,-3.83,-2.41,8.73,9.84
-6.70,4.23,5.81,9.83,-3.86,-2.37,8.73,9.83
-6.68,4.21,5.82,9.80,-3.86,-2.38,8.66,9.78
-6.67,4.07,5.86,9.77,-3.83,-2.43,8.69,9.80
-6.61,4.05,5.90,9.74,-3.83,-2.47,8.72,9.84
-6.62,4.11,5.89,9.76,-3.84,-2.48,8.72,9.85
-6.68,4.24,5.87,9.85,-3.83,-2.46,8.76,9.87
-6.69,4.28,5.87,9.88,-3.82,-2.49,8.78,9.90
-6.65,4.19,5.86,9.80,-3.83,-2.53,8.75,9.88
-6.61,4.09,5.89,9.76,-3.84,-2.45,8.75,9.87
-6.66,4.11,5.90,9.80,-3.79,-2.41,8.79,9.87
-6.69,4.23,5.84,9.84,-3.83,-2.39,8.73,9.83
-6.75,4.30,5.82,9.89,-3.80,-2.38,8.79,9.87
-6.67,4.28,5.80,9.83,-3.81,-2.41,8.81,9.89
-6.69,4.21,5.79,9.80,-3.82,-2.33,8.76,9.83
-6.73,4.19,5.80,9.83,-3.82,-2.32,8.69,9.77
-6.70,4.17,5.81,9.81,-3.82,-2.37,8.70,9.79
-6.64,4.15,5.84,9.77,-3.83,-2.46,8.74,9.86
-6.62,4.18,5.92,9.81,-3.81,-2.52,8.79,9.91
-6.64,4.19,5.97,9.86,-3.85,-2.56,8.77,9.91
-6.70,4.24,5.93,9.90,-3.87,-2.52,8.72,9.87
-6.70,4.24,5.87,9.86,-3.89,-2.45,8.67,9.81
-6.64,4.11,5.85,9.76,-3.87,-2.47,8.65,9.79
-6.56,3.96,5.85,9.64,-3.86,-2.45,8.64,9.78
-6.60,4.02,5.89,9.72,-3.80,-2.42,8.69,9.79
-6.68,4.16,5.88,9.82,-3.79,-2.44,8.77,9.86
-6.72,4.33,5.84,9.90,-3.77,-2.43,8.82,9.90
-6.68,4.34,5.82,9.86,-3.82,-2.43,8.80,9.90
-6.71,4.24,5.81,9.83,-3.82,-2.40,8.74,9.84
-6.70,4.14,5.83,9.80,-3.85,-2.40,8.73,9.84
-6.70,4.08,5.84,9.78,-3.82,-2.37,8.74,9.83
-6.70,4.13,5.82,9.79,-3.80,-2.35,8.68,9.76
-6.64,4.22,5.79,9.77,-3.79,-2.41,8.70,9.79
-6.60,4.23,5.85,9.78,-3.79,-2.47,8.70,9.81
-6.65,4.19,5.88,9.81,-3.82,-2.51,8.76,9.88
-6.70,4.17,5.92,9.86,-3.82,-2.47,8.77,9.88
-6.71,4.16,5.90,9.85,-3.86,-2.47,8.77,9.90
-6.69,4.19,5.87,9.84,-3.83,-2.46,8.75,9.86
-6.61,4.19,5.85,9.78,-3.82,-2.47,8.74,9.85
-6.62,4.14,5.84,9.75,-3.81,-2.41,8.72,9.81
-6.65,4.14,5.81,9.76,-3.79,-2.40,8.67,9.76
-6.66,4.16,5.89,9.81,-3.76,-2.47,8.76,9.85
-6.65,4.21,5.90,9.84,-3.82,-2.49,8.81,9.92
-6.74,4.25,5.85,9.88,-3.85,-2.43,8.78,9.89
-6.77,4.26,5.82,9.89,-3.85,-2.37,8.76,9.86
-6.73,4.21,5.83,9.85,-3.84,-2.37,8.69,9.79
-6.66,4.08,5.82,9.74,-3.79,-2.38,8.68,9.76
-6.63,4.10,5.84,9.74,-3.84,-2.38,8.68,9.79
-6.67,4.17,5.83,9.79,-3.79,-2.39,8.73,9.81
-6.65,4.27,5.85,9.83,-3.76,-2.44,8.78,9.86
-6.62,4.24,5.87,9.81,-3.79,-2.49,8.77,9.88
-6.68,4.24,5.89,9.86,-3.81,-2.46,8.75,9.86
-6.69,4.20,5.89,9.85,-3.85,-2.45,8.76,9.88
-6.71,4.17,5.88,9.84,-3.85,-2.46,8.74,9.86
-6.69,4.12,5.87,9.81,-3.84,-2.46,8.72,9.84
-6.67,4.13,5.86,9.80,-3.81,-2.42,8.73,9.83
-6.66,4.19,5.81,9.78,-3.84,-2.39,8.73,9.83
-6.66,4.24,5.82,9.81,-3.81,-2.41,8.75,9.85
-6.67,4.23,5.84,9.82,-3.80,-2.43,8.76,9.85
-6.67,4.18,5.85,9.81,-3.82,-2.40,8.73,9.83
-6.75,4.19,5.83,9.85,-3.85,-2.36,8.72,9.82
-6.71,4.19,5.83,9.83,-3.81,-2.37,8.73,9.81
-6.62,4.16,5.85,9.76,-3.82,-2.42,8.76,9.85
-6.65,4.16,5.86,9.80,-3.81,-2.42,8.72,9.82
-6.67,4.22,5.84,9.81,-3.80,-2.39,8.76,9.84
-6.67,4.23,5.87,9.84,-3.76,-2.43,8.80,9.88
-6.66,4.27,5.85,9.84,-3.80,-2.47,8.82,9.91
-6.68,4.27,5.85,9.86,-3.82,-2.46,8.76,9.87
-6.68,4.24,5.85,9.84,-3.82,-2.42,8.76,9.86
-6.70,4.17,5.84,9.82,-3.85,-2.38,8.67,9.78
-6.69,4.15,5.82,9.79,-3.86,-2.39,8.67,9.79
-6.64,4.07,5.83,9.73,-3.81,-2.44,8.71,9.81
-6.61,4.15,5.83,9.75,-3.83,-2.42,8.74,9.84
-6.65,4.17,5.84,9.78,-3.80,-2.43,8.71,9.81
-6.67,4.20,5.86,9.82,-3.82,-2.45,8.75,9.85
-6.66,4.18,5.85,9.80,-3.81,-2.50,8.77,9.88
-6.64,4.11,5.87,9.77,-3.82,-2.44,8.73,9.84
-6.68,4.15,5.87,9.81,-3.84,-2.42,8.76,9.87
-6.72,4.22,5.83,9.85,-3.84,-2.43,8.76,9.87
-6.70,4.28,5.79,9.84,-3.85,-2.41,8.73,9.84
-6.65,4.16,5.84,9.78,-3.81,-2.40,8.70,9.79
-6.61,4.09,5.86,9.73,-3.84,-2.45,8.78,9.89
-6.66,4.11,5.88,9.79,-3.80,-2.45,8.80,9.89
-6.75,4.24,5.87,9.90,-3.81,-2.36,8.81,9.88
-6.78,4.39,5.83,9.96,-3.77,-2.36,8.81,9.87
-6.66,4.32,5.78,9.82,-3.80,-2.44,8.82,9.91
-6.67,4.20,5.81,9.79,-3.82,-2.38,8.76,9.85
-6.70,4.15,5.80,9.78,-3.86,-2.30,8.69,9.78
-6.74,4.16,5.80,9.81,-3.80,-2.33,8.68,9.76
-6.70,4.17,5.79,9.79,-3.84,-2.37,8.72,9.81
-6.62,4.23,5.80,9.77,-3.84,-2.40,8.74,9.84
-6.65,4.23,5.84,9.81,-3.84,-2.41,8.72,9.83
-6.68,4.20,5.86,9.83,-3.84,-2.49,8.74,9.86
-6.65,4.16,5.92,9.82,-3.85,-2.53,8.80,9.93
-6.67,4.17,5.93,9.85,-3.83,-2.48,8.80,9.91
-6.71,4.21,5.85,9.85,-3.84,-2.42,8.72,9.83
-6.67,4.19,5.84,9.81,-3.85,-2.38,8.68,9.79
-6.64,4.15,5.80,9.74,-3.81,-2.42,8.70,9.80
-6.60,4.10,5.81,9.70,-3.84,-2.41,8.71,9.81
-6.67,4.12,5.81,9.76,-3.83,-2.38,8.72,9.81
-6.72,4.23,5.80,9.84,-3.81,-2.38,8.74,9.83
-6.71,4.25,5.83,9.85,-3.78,-2.41,8.77,9.85
-6.69,4.25,5.81,9.83,-3.82,-2.39,8.81,9.89
-6.73,4.24,5.82,9.85,-3.78,-2.38,8.77,9.85
-6.72,4.24,5.84,9.87,-3.77,-2.41,8.76,9.83
-6.64,4.22,5.86,9.81,-3.81,-2.45,8.73,9.83
-6.64,4.20,5.86,9.81,-3.82,-2.44,8.74,9.84
-6.66,4.17,5.86,9.80,-3.85,-2.49,8.69,9.82
-6.66,4.15,5.87,9.80,-3.87,-2.48,8.73,9.87
-6.63,4.10,5.94,9.80,-3.84,-2.52,8.79,9.92
-6.63,4.12,5.94,9.81,-3.84,-2.53,8.81,9.94
-6.72,4.25,5.87,9.88,-3.84,-2.46,8.78,9.90
-6.75,4.31,5.82,9.90,-3.81,-2.39,8.76,9.85
-6.68,4.28,5.79,9.82,-3.81,-2.37,8.76,9.84
-6.66,4.10,5.76,9.71,-3.80,-2.32,8.72,9.79
-6.72,4.16,5.75,9.77,-3.78,-2.25,8.72,9.77
-6.65,4.23,5.74,9.75,-3.78,-2.35,8.73,9.80
-6.71,4.27,5.77,9.82,-3.81,-2.40,8.76,9.85
-6.71,4.28,5.80,9.85,-3.82,-2.42,8.78,9.88
-6.67,4.21,5.86,9.83,-3.82,-2.46,8.74,9.86
-6.70,4.15,5.87,9.83,-3.86,-2.48,8.70,9.84
-6.63,4.13,5.94,9.82,-3.80,-2.58,8.79,9.92
-6.61,4.13,5.91,9.78,-3.84,-2.53,8.76,9.90
-6.63,4.16,5.91,9.81,-3.85,-2.48,8.71,9.84
-6.72,4.24,5.82,9.85,-3.84,-2.41,8.67,9.78
-6.69,4.19,5.81,9.80,-3.82,-2.40,8.68,9.78
-6.61,4.09,5.83,9.71,-3.82,-2.44,8.69,9.80
-6.60,4.09,5.85,9.72,-3.80,-2.42,8.79,9.88
-6.67,4.17,5.85,9.81,-3.79,-2.42,8.80,9.88
-6.70,4.35,5.85,9.90,-3.76,-2.43,8.91,9.97
-6.71,4.40,5.83,9.92,-3.77,-2.48,8.88,9.96
-6.69,4.33,5.83,9.88,-3.85,-2.45,8.81,9.92
-6.68,4.21,5.82,9.81,-3.83,-2.38,8.70,9.80
-6.72,4.09,5.80,9.77,-3.85,-2.33,8.66,9.76
-6.67,4.05,5.78,9.71,-3.82,-2.35,8.65,9.74
-6.65,4.07,5.80,9.72,-3.82,-2.38,8.69,9.79
-6.65,4.17,5.79,9.76,-3.82,-2.41,8.75,9.85
-6.70,4.27,5.84,9.86,-3.81,-2.44,8.79,9.89
-6.68,4.31,5.88,9.89,-3.79,-2.48,8.79,9.89
-6.67,4.28,5.86,9.85,-3.80,-2.49,8.84,9.94
-6.65,4.22,5.85,9.81,-3.82,-2.48,8.76,9.87
-6.63,4.16,5.89,9.80,-3.84,-2.51,8.77,9.90
-6.65,4.15,5.87,9.80,-3.82,-2.51,8.71,9.84
-6.69,4.17,5.85,9.82,-3.82,-2.44,8.67,9.78
-6.70,4.17,5.80,9.79,-3.84,-2.39,8.62,9.73
-6.66,4.12,5.82,9.75,-3.86,-2.36,8.65,9.76
-6.65,4.07,5.82,9.73,-3.81,-2.39,8.71,9.80
-6.67,4.11,5.82,9.76,-3.80,-2.39,8.78,9.86
-6.76,4.27,5.82,9.88,-3.80,-2.37,8.76,9.84
-6.74,4.35,5.80,9.90,-3.81,-2.37,8.80,9.88
-6.67,4.30,5.83,9.84,-3.78,-2.43,8.80,9.88
-6.66,4.21,5.85,9.81,-3.82,-2.46,8.78,9.88
-6.68,4.19,5.81,9.79,-3.79,-2.44,8.72,9.82
-6.69,4.18,5.85,9.82,-3.82,-2.44,8.70,9.81
-6.60,4.18,5.88,9.77,-3.80,-2.50,8.75,9.86
-6.57,4.15,5.89,9.75,-3.79,-2.52,8.76,9.87
-6.62,4.20,5.89,9.81,-3.83,-2.44,8.75,9.86
-6.73,4.23,5.82,9.86,-3.83,-2.39,8.72,9.82
-6.71,4.22,5.83,9.84,-3.84,-2.45,8.71,9.83
-6.63,4.17,5.84,9.77,-3.85,-2.44,8.76,9.88
-6.68,4.16,5.81,9.78,-3.86,-2.50,8.77,9.90
-6.72,4.23,5.77,9.82,-3.84,-2.26,8.68,9.76
-6.74,4.30,5.78,9.87,-3.82,-2.36,8.75,9.83
-6.69,4.25,5.80,9.83,-3.76,-2.45,8.80,9.88
-6.64,4.19,5.78,9.75,-3.83,-2.37,8.71,9.81
-6.70,4.16,5.83,9.80,-3.85,-2.42,8.69,9.81
-6.69,4.13,5.86,9.81,-3.83,-2.48,8.71,9.84
-6.61,4.11,5.85,9.74,-3.85,-2.48,8.68,9.82
-6.60,4.12,5.87,9.75,-3.86,-2.50,8.72,9.86
-6.64,4.16,5.91,9.82,-3.82,-2.49,8.72,9.84
-6.68,4.22,5.88,9.84,-3.85,-2.45,8.76,9.87
-6.68,4.20,5.84,9.82,-3.78,-2.42,8.79,9.87
-6.70,4.24,5.83,9.84,-3.79,-2.42,8.78,9.87
-6.70,4.25,5.81,9.83,-3.80,-2.37,8.78,9.86
-6.73,4.27,5.80,9.86,-3.80,-2.37,8.71,9.80
-6.72,4.27,5.75,9.82,-3.81,-2.32,8.72,9.80
-6.71,4.23,5.78,9.81,-3.80,-2.35,8.66,9.74
-6.62,4.10,5.86,9.74,-3.79,-2.43,8.73,9.82
-6.63,4.11,5.86,9.76,-3.81,-2.46,8.76,9.87
-6.70,4.22,5.89,9.86,-3.84,-2.47,8.74,9.86
-6.73,4.30,5.84,9.90,-3.86,-2.43,8.66,9.79
-6.70,4.22,5.85,9.84,-3.86,-2.48,8.71,9.85
-6.56,4.05,5.86,9.68,-3.86,-2.46,8.71,9.84
-6.65,4.04,5.84,9.73,-3.84,-2.42,8.65,9.77
-6.71,4.12,5.86,9.81,-3.85,-2.41,8.71,9.82
-6.67,4.23,5.80,9.80,-3.79,-2.43,8.75,9.84
-6.65,4.31,5.84,9.85,-3.75,-2.48,8.85,9.93
-6.68,4.27,5.85,9.85,-3.80,-2.44,8.83,9.92
-6.75,4.28,5.83,9.89,-3.82,-2.37,8.79,9.87
-6.74,4.24,5.79,9.85,-3.83,-2.35,8.71,9.80
-6.71,4.19,5.77,9.79,-3.79,-2.35,8.69,9.77
-6.62,4.10,5.80,9.71,-3.81,-2.34,8.68,9.77
-6.64,4.14,5.82,9.76,-3.81,-2.43,8.72,9.82
-6.70,4.22,5.87,9.85,-3.83,-2.44,8.78,9.88
-6.70,4.26,5.86,9.87,-3.83,-2.49,8.79,9.91
-6.66,4.26,5.89,9.86,-3.82,-2.57,8.83,9.96
-6.67,4.21,5.93,9.87,-3.78,-2.51,8.84,9.94
-6.71,4.22,5.85,9.86,-3.81,-2.43,8.80,9.89
-6.73,4.28,5.79,9.86,-3.80,-2.34,8.73,9.80
-6.70,4.28,5.73,9.80,-3.78,-2.29,8.66,9.72
-6.66,4.18,5.72,9.73,-3.81,-2.32,8.68,9.76
-6.62,4.08,5.77,9.68,-3.82,-2.35,8.68,9.77
-6.70,4.09,5.86,9.79,-3.83,-2.42,8.73,9.84
-6.74,4.18,5.89,9.88,-3.82,-2.45,8.81,9.91
-6.71,4.32,5.87,9.91,-3.80,-2.50,8.81,9.92
-6.67,4.34,5.89,9.90,-3.82,-2.54,8.78,9.90
-6.66,4.22,5.87,9.83,-3.86,-2.51,8.75,9.88
-6.68,4.11,5.84,9.78,-3.91,-2.42,8.65,9.79
-6.71,4.02,5.80,9.74,-3.85,-2.37,8.59,9.71
-6.64,4.01,5.83,9.70,-3.86,-2.43,8.66,9.79
-6.59,4.03,5.87,9.70,-3.81,-2.49,8.73,9.85
-6.70,4.26,5.84,9.85,-3.84,-2.44,8.80,9.91
-6.77,4.40,5.83,9.95,-3.79,-2.43,8.82,9.90
-6.75,4.37,5.78,9.91,-3.78,-2.37,8.77,9.84
-6.67,4.28,5.78,9.81,-3.80,-2.39,8.80,9.88
-6.68,4.13,5.84,9.79,-3.82,-2.41,8.80,9.89
-6.67,4.16,5.85,9.80,-3.78,-2.44,8.79,9.88
-6.73,4.22,5.80,9.83,-3.80,-2.41,8.76,9.85
-6.73,4.29,5.80,9.86,-3.81,-2.38,8.68,9.77
-6.70,4.23,5.77,9.81,-3.83,-2.38,8.69,9.79
-6.64,4.07,5.82,9.72,-3.87,-2.43,8.67,9.80
-6.63,4.02,5.86,9.72,-3.88,-2.43,8.69,9.82
-6.70,4.10,5.86,9.80,-3.85,-2.43,8.71,9.83
-6.72,4.19,5.86,9.85,-3.79,-2.50,8.75,9.85
-6.70,4.25,5.89,9.88,-3.76,-2.55,8.85,9.94
-6.64,4.26,5.88,9.84,-3.77,-2.54,8.85,9.95
-6.73,4.28,5.82,9.88,-3.82,-2.41,8.77,9.86
-6.75,4.23,5.80,9.86,-3.79,-2.35,8.74,9.81
-6.67,4.17,5.78,9.76,-3.83,-2.34,8.65,9.75
-6.66,4.10,5.75,9.71,-3.83,-2.34,8.67,9.76
-6.72,4.16,5.79,9.80,-3.82,-2.31,8.70,9.78
-6.73,4.21,5.81,9.84,-3.80,-2.41,8.79,9.87
-6.70,4.25,5.86,9.86,-3.82,-2.45,8.75,9.86
-6.70,4.28,5.86,9.87,-3.82,-2.46,8.77,9.88
-6.68,4.25,5.91,9.88,-3.82,-2.50,8.81,9.92
-6.70,4.17,5.91,9.85,-3.83,-2.53,8.76,9.89
-6.66,4.14,5.85,9.78,-3.86,-2.42,8.69,9.81
-6.70,4.16,5.83,9.81,-3.85,-2.38,8.65,9.76
-6.70,4.17,5.81,9.80,-3.86,-2.35,8.71,9.81
-6.70,4.17,5.75,9.77,-3.86,-2.38,8.72,9.82
-6.72,4.13,5.81,9.80,-3.85,-2.34,8.74,9.84
-6.69,4.13,5.85,9.80,-3.81,-2.40,8.79,9.88
-6.70,4.23,5.86,9.86,-3.78,-2.45,8.81,9.89
-6.71,4.32,5.86,9.90,-3.81,-2.47,8.83,9.93
-6.68,4.29,5.79,9.82,-3.81,-2.44,8.76,9.85
-6.68,4.19,5.82,9.80,-3.84,-2.37,8.67,9.77
-6.65,4.07,5.84,9.74,-3.84,-2.37,8.64,9.75
-6.63,4.03,5.82,9.70,-3.87,-2.40,8.68,9.80
-6.67,4.05,5.86,9.75,-3.85,-2.43,8.72,9.84
-6.68,4.22,5.86,9.84,-3.85,-2.47,8.79,9.91
-6.75,4.32,5.83,9.91,-3.83,-2.45,8.79,9.89
-6.77,4.34,5.82,9.93,-3.84,-2.42,8.76,9.87
-6.67,4.25,5.82,9.82,-3.80,-2.46,8.78,9.88
-6.62,4.13,5.83,9.74,-3.82,-2.46,8.71,9.82
-6.68,4.13,5.81,9.76,-3.86,-2.33,8.65,9.76
-6.72,4.19,5.83,9.83,-3.84,-2.37,8.71,9.81
-6.70,4.20,5.82,9.82,-3.81,-2.46,8.74,9.85
-6.63,4.20,5.81,9.76,-3.83,-2.47,8.76,9.87
-6.68,4.18,5.86,9.82,-3.83,-2.40,8.75,9.85
-6.72,4.18,5.83,9.83,-3.85,-2.40,8.74,9.84
-6.68,4.15,5.85,9.80,-3.82,-2.45,8.76,9.87
-6.63,4.15,5.85,9.77,-3.82,-2.48,8.77,9.89
-6.69,4.22,5.83,9.83,-3.85,-2.42,8.69,9.81
-6.74,4.27,5.80,9.87,-3.81,-2.37,8.74,9.83
-6.67,4.18,5.80,9.78,-3.82,-2.43,8.74,9.84
-6.61,4.08,5.81,9.70,-3.86,-2.43,8.74,9.85
-6.64,4.09,5.82,9.73,-3.81,-2.40,8.72,9.81
-6.69,4.20,5.84,9.82,-3.80,-2.45,8.73,9.83
-6.72,4.28,5.80,9.85,-3.86,-2.42,8.71,9.83
-6.68,4.21,5.83,9.81,-3.87,-2.43,8.74,9.86
-6.64,4.15,5.83,9.76,-3.85,-2.46,8.71,9.83
-6.67,4.12,5.87,9.79,-3.80,-2.49,8.80,9.90
-6.68,4.17,5.87,9.82,-3.82,-2.46,8.82,9.92
-6.76,4.32,5.82,9.91,-3.82,-2.43,8.77,9.87
-6.75,4.31,5.79,9.88,-3.83,-2.38,8.74,9.84
-6.70,4.20,5.79,9.80,-3.83,-2.37,8.68,9.78
-6.64,4.07,5.80,9.71,-3.81,-2.39,8.71,9.80
-6.68,4.04,5.80,9.72,-3.85,-2.34,8.71,9.81
-6.73,4.20,5.82,9.84,-3.81,-2.38,8.75,9.84
-6.70,4.29,5.81,9.85,-3.80,-2.44,8.74,9.84
-6.65,4.28,5.84,9.83,-3.83,-2.50,8.81,9.92
-6.63,4.22,5.86,9.80,-3.83,-2.51,8.78,9.90
-6.70,4.18,5.87,9.84,-3.82,-2.46,8.76,9.87
-6.69,4.20,5.86,9.84,-3.80,-2.46,8.75,9.85
-6.66,4.17,5.83,9.78,-3.82,-2.44,8.76,9.86
-6.64,4.18,5.80,9.76,-3.85,-2.39,8.71,9.81
-6.68,4.14,5.78,9.76,-3.86,-2.36,8.73,9.83
-6.72,4.17,5.81,9.82,-3.81,-2.38,8.75,9.83
-6.70,4.19,5.80,9.80,-3.83,-2.38,8.76,9.85
-6.71,4.24,5.83,9.84,-3.77,-2.43,8.86,9.93
-6.70,4.26,5.85,9.86,-3.79,-2.48,8.87,9.96
-6.69,4.33,5.84,9.88,-3.80,-2.48,8.83,9.93
-6.71,4.24,5.81,9.84,-3.82,-2.41,8.73,9.83
-6.69,4.16,5.78,9.78,-3.86,-2.35,8.67,9.78
-6.69,4.06,5.76,9.72,-3.88,-2.37,8.69,9.81
-6.64,4.05,5.81,9.71,-3.85,-2.40,8.71,9.82
-6.69,4.11,5.83,9.78,-3.84,-2.42,8.74,9.85
-6.73,4.32,5.81,9.89,-3.81,-2.41,8.78,9.87
-6.72,4.35,5.79,9.88,-3.85,-2.44,8.79,9.90
-6.66,4.20,5.80,9.79,-3.84,-2.40,8.76,9.86
-6.63,4.08,5.81,9.71,-3.82,-2.43,8.68,9.79
-6.60,3.97,5.82,9.65,-3.82,-2.40,8.67,9.77
-6.71,4.23,5.83,9.85,-3.83,-2.34,8.73,9.82
-6.75,4.36,5.77,9.90,-3.84,-2.41,8.83,9.92
-6.70,4.36,5.80,9.87,-3.85,-2.46,8.80,9.91
-6.61,4.19,5.87,9.78,-3.86,-2.52,8.76,9.90
-6.67,4.12,5.86,9.79,-3.86,-2.43,8.75,9.87
-6.77,4.21,5.80,9.86,-3.85,-2.34,8.72,9.82
-6.73,4.27,5.78,9.85,-3.81,-2.37,8.69,9.78
-6.67,4.20,5.82,9.79,-3.80,-2.43,8.78,9.88
-6.62,4.16,5.78,9.72,-3.84,-2.39,8.75,9.85
-6.71,4.21,5.78,9.81,-3.80,-2.31,8.72,9.79
-6.78,4.27,5.78,9.88,-3.79,-2.39,8.73,9.81
-6.67,4.25,5.78,9.79,-3.84,-2.40,8.76,9.86
-6.66,4.19,5.81,9.78,-3.85,-2.43,8.74,9.85
-6.72,4.16,5.79,9.79,-3.84,-2.37,8.73,9.83
-6.73,4.18,5.82,9.83,-3.81,-2.43,8.78,9.87
-6.68,4.19,5.83,9.80,-3.82,-2.43,8.81,9.90
-6.72,4.23,5.80,9.83,-3.83,-2.39,8.75,9.84
-6.70,4.25,5.80,9.82,-3.80,-2.41,8.76,9.85
-6.71,4.19,5.82,9.82,-3.85,-2.47,8.73,9.85
-6.70,4.14,5.82,9.79,-3.83,-2.43,8.73,9.84
-6.70,4.17,5.80,9.80,-3.86,-2.36,8.68,9.79
-6.73,4.15,5.78,9.79,-3.86,-2.37,8.70,9.81
-6.70,4.16,5.80,9.79,-3.81,-2.37,8.72,9.81
-6.68,4.17,5.76,9.75,-3.82,-2.41,8.74,9.83
-6.71,4.26,5.84,9.86,-3.78,-2.42,8.79,9.87
-6.71,4.25,5.82,9.85,-3.77,-2.44,8.82,9.90
-6.70,4.29,5.82,9.86,-3.81,-2.44,8.78,9.87
-6.72,4.26,5.78,9.83,-3.84,-2.39,8.73,9.83
-6.71,4.23,5.74,9.79,-3.85,-2.39,8.67,9.78
-6.70,4.06,5.78,9.73,-3.87,-2.39,8.66,9.78
-6.64,4.04,5.84,9.72,-3.80,-2.42,8.77,9.86
-6.72,4.17,5.85,9.84,-3.83,-2.46,8.76,9.87
-6.80,4.31,5.82,9.93,-3.83,-2.44,8.75,9.86
-6.79,4.35,5.79,9.93,-3.85,-2.41,8.73,9.84
-6.66,4.19,5.77,9.75,-3.84,-2.40,8.74,9.84
-6.65,4.04,5.82,9.71,-3.81,-2.37,8.74,9.83
-6.68,4.07,5.82,9.75,-3.82,-2.38,8.71,9.81
-6.72,4.20,5.80,9.82,-3.81,-2.39,8.71,9.80
-6.74,4.30,5.75,9.84,-3.81,-2.37,8.73,9.82
-6.71,4.28,5.79,9.84,-3.81,-2.43,8.79,9.89
-6.70,4.23,5.81,9.82,-3.83,-2.44,8.80,9.90
-6.74,4.15,5.83,9.83,-3.82,-2.41,8.76,9.85
-6.72,4.18,5.83,9.83,-3.84,-2.43,8.78,9.89
-6.68,4.16,5.83,9.80,-3.85,-2.44,8.74,9.86
-6.72,4.21,5.80,9.83,-3.86,-2.41,8.74,9.85
-6.72,4.22,5.82,9.84,-3.82,-2.44,8.75,9.86
-6.69,4.21,5.79,9.80,-3.84,-2.41,8.77,9.88
-6.72,4.20,5.76,9.80,-3.86,-2.33,8.70,9.80
-6.73,4.19,5.75,9.79,-3.82,-2.32,8.69,9.77
-6.67,4.15,5.78,9.76,-3.82,-2.36,8.74,9.83
-6.64,4.15,5.77,9.73,-3.82,-2.42,8.69,9.80
-6.71,4.18,5.81,9.81,-3.84,-2.42,8.73,9.84
-6.74,4.21,5.82,9.85,-3.86,-2.44,8.76,9.88
-6.68,4.22,5.85,9.83,-3.82,-2.49,8.82,9.93
-6.65,4.25,5.88,9.84,-3.82,-2.52,8.86,9.97
-6.70,4.23,5.87,9.86,-3.81,-2.50,8.84,9.95
-6.76,4.27,5.82,9.89,-3.85,-2.40,8.78,9.88
-6.80,4.28,5.78,9.90,-3.81,-2.35,8.73,9.81
-6.69,4.15,5.73,9.74,-3.82,-2.29,8.66,9.74
-6.66,4.12,5.70,9.69,-3.80,-2.27,8.64,9.71
-6.71,4.13,5.74,9.75,-3.82,-2.29,8.69,9.76
-6.72,4.17,5.75,9.77,-3.82,-2.35,8.71,9.80
-6.71,4.24,5.78,9.82,-3.82,-2.48,8.78,9.90
-6.69,4.26,5.88,9.87,-3.80,-2.53,8.86,9.97
-6.68,4.24,5.88,9.86,-3.83,-2.53,8.85,9.97
-6.71,4.25,5.89,9.89,-3.80,-2.49,8.84,9.94
-6.73,4.22,5.89,9.89,-3.84,-2.48,8.79,9.91
-6.73,4.21,5.76,9.81,-3.87,-2.31,8.65,9.76
-6.71,4.17,5.74,9.76,-3.87,-2.31,8.57,9.69
-6.65,4.05,5.74,9.67,-3.87,-2.36,8.62,9.74
-6.64,4.00,5.78,9.67,-3.82,-2.39,8.68,9.78
-6.69,4.07,5.79,9.74,-3.83,-2.40,8.71,9.81
-6.76,4.31,5.82,9.91,-3.82,-2.42,8.80,9.89
-6.73,4.33,5.82,9.89,-3.82,-2.45,8.80,9.90
-6.69,4.28,5.83,9.85,-3.82,-2.50,8.82,9.93
-6.67,4.21,5.86,9.82,-3.81,-2.47,8.85,9.94
-6.71,4.20,5.85,9.84,-3.82,-2.41,8.76,9.86
-6.79,4.28,5.78,9.89,-3.86,-2.35,8.74,9.84
-6.69,4.25,5.74,9.79,-3.82,-2.37,8.71,9.80
-6.63,4.14,5.76,9.71,-3.81,-2.35,8.72,9.80
-6.66,4.10,5.75,9.71,-3.86,-2.34,8.67,9.77
-6.73,4.14,5.80,9.80,-3.86,-2.34,8.71,9.81
-6.78,4.25,5.78,9.87,-3.82,-2.40,8.79,9.89
-6.70,4.24,5.81,9.83,-3.82,-2.46,8.78,9.88
-6.67,4.22,5.83,9.81,-3.82,-2.45,8.76,9.86
-6.72,4.25,5.80,9.84,-3.83,-2.39,8.71,9.81
-6.72,4.22,5.79,9.82,-3.80,-2.37,8.70,9.79
-6.70,4.13,5.79,9.77,-3.83,-2.40,8.70,9.81
-6.67,4.07,5.80,9.73,-3.85,-2.42,8.70,9.82
-6.68,4.12,5.80,9.76,-3.85,-2.42,8.70,9.82
-6.73,4.17,5.82,9.83,-3.86,-2.40,8.72,9.83
-6.73,4.19,5.80,9.82,-3.83,-2.41,8.73,9.83
-6.71,4.18,5.84,9.83,-3.85,-2.46,8.80,9.92
-6.69,4.20,5.86,9.83,-3.81,-2.44,8.79,9.89
-6.76,4.21,5.80,9.85,-3.82,-2.39,8.74,9.83
-6.74,4.28,5.76,9.85,-3.81,-2.34,8.68,9.77
-6.68,4.19,5.74,9.75,-3.84,-2.37,8.67,9.77
-6.64,4.12,5.77,9.72,-3.85,-2.40,8.72,9.83
-6.69,4.14,5.80,9.77,-3.81,-2.39,8.79,9.87
-6.79,4.21,5.82,9.89,-3.82,-2.41,8.78,9.87
-6.84,4.31,5.83,9.97,-3.82,-2.42,8.80,9.90
-6.75,4.31,5.77,9.87,-3.84,-2.43,8.79,9.89
-6.68,4.23,5.77,9.79,-3.83,-2.39,8.74,9.84
-6.67,4.12,5.80,9.76,-3.79,-2.42,8.68,9.78
-6.66,4.12,5.84,9.76,-3.81,-2.45,8.77,9.87
-6.65,4.17,5.82,9.77,-3.83,-2.44,8.80,9.90
-6.77,4.31,5.80,9.90,-3.86,-2.41,8.75,9.86
-6.75,4.27,5.76,9.85,-3.86,-2.41,8.67,9.79
-6.67,4.14,5.80,9.76,-3.85,-2.45,8.75,9.87
-6.65,4.06,5.81,9.72,-3.81,-2.43,8.73,9.83
-6.73,4.10,5.80,9.79,-3.82,-2.34,8.71,9.80
-6.75,4.27,5.75,9.84,-3.84,-2.36,8.72,9.82
-6.69,4.25,5.74,9.79,-3.83,-2.38,8.74,9.83
-6.63,4.18,5.80,9.75,-3.80,-2.43,8.83,9.91
-6.69,4.17,5.86,9.82,-3.77,-2.45,8.88,9.95
-6.79,4.25,5.85,9.92,-3.84,-2.43,8.78,9.88
-6.79,4.36,5.75,9.90,-3.82,-2.37,8.69,9.79
-6.64,4.21,5.72,9.72,-3.86,-2.36,8.66,9.77
-6.57,4.03,5.76,9.63,-3.83,-2.36,8.66,9.76
-6.66,3.99,5.80,9.69,-3.86,-2.36,8.68,9.78
-6.73,4.09,5.80,9.78,-3.85,-2.38,8.74,9.84
-6.79,4.32,5.81,9.93,-3.85,-2.45,8.80,9.91
-6.70,4.32,5.86,9.90,-3.81,-2.51,8.88,9.99
-6.74,4.30,5.87,9.91,-3.85,-2.51,8.88,10.00
-6.73,4.24,5.85,9.87,-3.85,-2.43,8.78,9.89
-6.75,4.24,5.72,9.81,-3.80,-2.31,8.65,9.72
-6.66,4.13,5.70,9.69,-3.85,-2.32,8.58,9.69
-6.60,4.02,5.73,9.62,-3.85,-2.34,8.60,9.71
-6.64,3.99,5.80,9.67,-3.85,-2.38,8.66,9.77
-6.71,4.09,5.83,9.78,-3.85,-2.39,8.72,9.83
-6.77,4.27,5.85,9.91,-3.85,-2.48,8.81,9.93
-6.74,4.32,5.84,9.91,-3.85,-2.48,8.85,9.96
-6.75,4.27,5.83,9.89,-3.84,-2.49,8.84,9.95
-6.76,4.22,5.82,9.87,-3.83,-2.38,8.76,9.85
-6.68,4.17,5.78,9.77,-3.80,-2.36,8.74,9.82
-6.67,4.15,5.76,9.74,-3.76,-2.35,8.71,9.77
-6.66,4.23,5.79,9.79,-3.79,-2.36,8.76,9.83
-6.70,4.28,5.80,9.84,-3.78,-2.40,8.81,9.88
-6.78,4.30,5.77,9.88,-3.85,-2.37,8.74,9.84
-6.77,4.29,5.77,9.88,-3.86,-2.37,8.70,9.81
-6.73,4.16,5.77,9.79,-3.86,-2.38,8.71,9.82
-6.70,4.09,5.80,9.76,-3.82,-2.41,8.71,9.82
-6.65,4.13,5.80,9.74,-3.82,-2.40,8.70,9.80
-6.71,4.15,5.81,9.79,-3.87,-2.41,8.68,9.80
-6.70,4.24,5.84,9.84,-3.86,-2.47,8.76,9.89
-6.66,4.26,5.87,9.85,-3.79,-2.56,8.84,9.96
-6.72,4.24,5.85,9.87,-3.85,-2.54,8.80,9.93
-6.75,4.25,5.81,9.87,-3.85,-2.35,8.74,9.83
-6.77,4.26,5.75,9.86,-3.82,-2.37,8.70,9.79
-6.68,4.20,5.74,9.75,-3.80,-2.36,8.74,9.82
-6.64,4.10,5.78,9.71,-3.81,-2.37,8.74,9.82
-6.76,4.18,5.76,9.82,-3.85,-2.28,8.73,9.81
-6.80,4.27,5.72,9.86,-3.86,-2.34,8.67,9.78
-6.78,4.23,5.76,9.85,-3.85,-2.39,8.73,9.84
-6.66,4.12,5.83,9.76,-3.82,-2.47,8.78,9.89
-6.68,4.12,5.89,9.81,-3.82,-2.49,8.85,9.96
-6.78,4.24,5.86,9.92,-3.81,-2.48,8.77,9.88
-6.80,4.34,5.82,9.95,-3.82,-2.45,8.73,9.84
-6.70,4.32,5.77,9.84,-3.88,-2.43,8.68,9.81
-6.59,4.02,5.78,9.65,-3.84,-2.43,8.65,9.77
-6.61,3.93,5.85,9.66,-3.86,-2.37,8.67,9.78
-6.70,4.06,5.83,9.77,-3.83,-2.40,8.69,9.80
-6.76,4.25,5.81,9.88,-3.81,-2.42,8.80,9.89
-6.70,4.37,5.83,9.90,-3.75,-2.52,8.87,9.96
-6.68,4.36,5.81,9.87,-3.83,-2.41,8.87,9.95
-6.82,4.31,5.79,9.94,-3.83,-2.29,8.77,9.84
-6.89,4.25,5.72,9.91,-3.80,-2.24,8.66,9.72
-6.77,4.14,5.70,9.77,-3.85,-2.25,8.62,9.71
-6.68,4.03,5.71,9.67,-3.86,-2.31,8.60,9.71
-6.67,4.08,5.74,9.70,-3.85,-2.35,8.65,9.76
-6.70,4.18,5.80,9.79,-3.86,-2.39,8.65,9.77
-6.71,4.24,5.83,9.85,-3.86,-2.47,8.74,9.87
-6.72,4.24,5.86,9.87,-3.85,-2.53,8.81,9.94
-6.68,4.14,5.92,9.84,-3.87,-2.56,8.84,9.98
-6.74,4.16,5.89,9.87,-3.84,-2.46,8.76,9.88
-6.76,4.23,5.83,9.88,-3.84,-2.45,8.74,9.86
-6.70,4.24,5.76,9.80,-3.83,-2.38,8.67,9.77
-6.64,4.15,5.75,9.72,-3.83,-2.37,8.63,9.74
-6.64,4.09,5.73,9.68,-3.86,-2.31,8.66,9.75
-6.73,4.12,5.77,9.77,-3.80,-2.37,8.67,9.76
-6.73,4.19,5.80,9.82,-3.85,-2.42,8.77,9.88
-6.73,4.26,5.81,9.85,-3.81,-2.48,8.85,9.95
-6.71,4.32,5.82,9.88,-3.77,-2.45,8.84,9.92
-6.76,4.35,5.83,9.93,-3.78,-2.44,8.84,9.92
-6.76,4.29,5.79,9.88,-3.83,-2.39,8.78,9.87
-6.75,4.23,5.75,9.82,-3.79,-2.33,8.70,9.77
-6.71,4.13,5.72,9.74,-3.79,-2.30,8.67,9.74
-6.65,4.08,5.77,9.71,-3.83,-2.37,8.66,9.76
-6.67,4.13,5.80,9.75,-3.83,-2.45,8.65,9.78
-6.69,4.18,5.81,9.80,-3.83,-2.46,8.73,9.84
-6.69,4.21,5.85,9.83,-3.85,-2.48,8.79,9.90
-6.72,4.22,5.85,9.86,-3.80,-2.53,8.84,9.95
-6.69,4.21,5.87,9.85,-3.83,-2.54,8.78,9.91
-6.73,4.24,5.84,9.87,-3.86,-2.50,8.79,9.92
-6.72,4.21,5.80,9.83,-3.81,-2.44,8.75,9.85
-6.69,4.16,5.78,9.77,-3.83,-2.34,8.67,9.76
-6.70,4.14,5.73,9.74,-3.82,-2.32,8.70,9.78
-6.73,4.15,5.71,9.75,-3.84,-2.31,8.70,9.78
-6.77,4.17,5.74,9.81,-3.84,-2.30,8.73,9.81
-6.76,4.24,5.77,9.85,-3.81,-2.33,8.78,9.85
-6.75,4.28,5.80,9.88,-3.82,-2.44,8.79,9.89
-6.75,4.29,5.83,9.90,-3.84,-2.51,8.81,9.93
-6.72,4.24,5.86,9.88,-3.82,-2.49,8.83,9.94
-6.72,4.20,5.82,9.83,-3.82,-2.44,8.75,9.85
-6.74,4.19,5.81,9.83,-3.84,-2.38,8.68,9.79
-6.73,4.17,5.77,9.80,-3.85,-2.40,8.64,9.75
-6.64,4.10,5.77,9.71,-3.83,-2.40,8.69,9.79
-6.66,4.08,5.79,9.72,-3.81,-2.41,8.68,9.78
-6.70,4.19,5.82,9.81,-3.83,-2.41,8.81,9.91
-6.71,4.27,5.83,9.86,-3.81,-2.47,8.83,9.93
-6.75,4.32,5.82,9.91,-3.85,-2.46,8.82,9.93
-6.73,4.32,5.80,9.88,-3.80,-2.44,8.80,9.89
-6.72,4.22,5.78,9.82,-3.80,-2.41,8.75,9.84
-6.69,4.13,5.79,9.77,-3.82,-2.37,8.63,9.73
-6.69,4.08,5.75,9.72,-3.89,-2.36,8.66,9.79
-6.70,4.10,5.75,9.74,-3.82,-2.36,8.64,9.74
-6.70,4.10,5.78,9.75,-3.88,-2.41,8.69,9.81
-6.69,4.18,5.82,9.81,-3.86,-2.48,8.73,9.86
-6.70,4.22,5.82,9.83,-3.86,-2.51,8.76,9.90
-6.70,4.26,5.88,9.88,-3.80,-2.54,8.88,9.98
-6.70,4.25,5.86,9.86,-3.82,-2.51,8.80,9.91
-6.72,4.25,5.80,9.84,-3.84,-2.42,8.74,9.84
-6.69,4.21,5.77,9.79,-3.80,-2.39,8.73,9.82
-6.69,4.20,5.76,9.78,-3.80,-2.41,8.72,9.81
-6.72,4.14,5.75,9.76,-3.84,-2.33,8.67,9.77
-6.75,4.19,5.71,9.78,-3.85,-2.27,8.70,9.78
-6.75,4.24,5.73,9.82,-3.83,-2.35,8.71,9.80
-6.71,4.17,5.81,9.81,-3.82,-2.44,8.75,9.86
-6.68,4.21,5.82,9.81,-3.82,-2.49,8.80,9.91
-6.73,4.25,5.82,9.86,-3.80,-2.48,8.83,9.93
-6.76,4.30,5.84,9.91,-3.76,-2.44,8.78,9.86
-6.71,4.27,5.80,9.84,-3.81,-2.45,8.77,9.87
-6.62,4.19,5.80,9.75,-3.84,-2.45,8.70,9.83
-6.62,4.09,5.78,9.69,-3.84,-2.41,8.68,9.79
-6.65,4.11,5.79,9.72,-3.84,-2.40,8.68,9.79
-6.69,4.17,5.76,9.77,-3.79,-2.38,8.69,9.78
-6.72,4.22,5.76,9.80,-3.84,-2.37,8.75,9.85
-6.74,4.28,5.80,9.87,-3.81,-2.43,8.78,9.88
-6.71,4.25,5.81,9.84,-3.83,-2.48,8.84,9.95
-6.77,4.25,5.83,9.89,-3.82,-2.43,8.77,9.87
-6.75,4.26,5.81,9.88,-3.81,-2.47,8.76,9.87
-6.66,4.18,5.82,9.78,-3.81,-2.50,8.79,9.90
-6.65,4.16,5.82,9.77,-3.83,-2.48,8.77,9.88
-6.72,4.24,5.81,9.84,-3.83,-2.43,8.70,9.81
-6.78,4.27,5.74,9.86,-3.87,-2.37,8.66,9.78
-6.71,4.17,5.75,9.77,-3.88,-2.40,8.62,9.76
-6.66,3.99,5.78,9.67,-3.86,-2.45,8.68,9.81
-6.70,4.07,5.80,9.75,-3.86,-2.39,8.71,9.83
-6.77,4.19,5.81,9.86,-3.83,-2.39,8.74,9.83
-6.76,4.30,5.80,9.89,-3.79,-2.46,8.78,9.87
-6.70,4.32,5.82,9.87,-3.79,-2.48,8.80,9.90
-6.67,4.27,5.83,9.83,-3.79,-2.44,8.84,9.93
-6.78,4.28,5.81,9.91,-3.76,-2.40,8.86,9.92
-6.80,4.31,5.78,9.91,-3.80,-2.39,8.77,9.85
-6.75,4.27,5.75,9.84,-3.85,-2.38,8.70,9.80
-6.66,4.19,5.76,9.75,-3.86,-2.37,8.69,9.80
-6.69,4.15,5.79,9.77,-3.81,-2.42,8.70,9.80
-6.73,4.13,5.79,9.79,-3.88,-2.40,8.73,9.85
-6.74,4.20,5.79,9.83,-3.84,-2.43,8.71,9.82
-6.70,4.21,5.81,9.82,-3.86,-2.50,8.75,9.88
-6.66,4.18,5.82,9.78,-3.85,-2.52,8.73,9.87
-6.70,4.16,5.82,9.81,-3.86,-2.47,8.71,9.84
-6.71,4.18,5.80,9.81,-3.83,-2.42,8.73,9.83
-6.73,4.22,5.82,9.84,-3.80,-2.47,8.77,9.87
-6.69,4.23,5.80,9.81,-3.85,-2.44,8.73,9.84
-6.71,4.23,5.79,9.82,-3.84,-2.43,8.77,9.88
-6.74,4.23,5.77,9.83,-3.82,-2.37,8.72,9.82
-6.77,4.23,5.77,9.84,-3.86,-2.37,8.74,9.84
-6.72,4.16,5.78,9.79,-3.85,-2.42,8.74,9.86
-6.67,4.15,5.79,9.76,-3.83,-2.43,8.72,9.83
-6.73,4.20,5.76,9.80,-3.81,-2.38,8.72,9.81
-6.71,4.27,5.78,9.84,-3.80,-2.38,8.71,9.80
-6.69,4.26,5.80,9.83,-3.79,-2.47,8.80,9.90
-6.65,4.24,5.84,9.81,-3.78,-2.51,8.85,9.95
-6.72,4.26,5.84,9.87,-3.83,-2.48,8.84,9.95
-6.84,4.35,5.77,9.95,-3.85,-2.40,8.75,9.85
-6.78,4.30,5.73,9.86,-3.84,-2.35,8.65,9.76
-6.68,4.17,5.74,9.74,-3.86,-2.36,8.68,9.78
-6.62,4.06,5.77,9.67,-3.85,-2.37,8.69,9.79
-6.69,4.05,5.81,9.74,-3.85,-2.41,8.73,9.84
-6.78,4.27,5.81,9.90,-3.84,-2.48,8.77,9.89
-6.69,4.33,5.82,9.86,-3.81,-2.52,8.78,9.90
-6.66,4.29,5.85,9.85,-3.78,-2.53,8.83,9.94
-6.70,4.25,5.82,9.84,-3.82,-2.47,8.75,9.86
-6.74,4.18,5.78,9.81,-3.83,-2.34,8.67,9.76
-6.72,4.15,5.74,9.76,-3.86,-2.34,8.64,9.75
-6.70,4.12,5.72,9.72,-3.81,-2.35,8.65,9.74
-6.67,4.13,5.75,9.72,-3.80,-2.39,8.69,9.78
-6.70,4.18,5.76,9.78,-3.79,-2.40,8.71,9.80
-6.74,4.28,5.79,9.86,-3.80,-2.44,8.77,9.87
-6.69,4.26,5.84,9.85,-3.85,-2.49,8.77,9.90
-6.66,4.21,5.89,9.84,-3.82,-2.57,8.85,9.97
-6.70,4.21,5.89,9.87,-3.84,-2.55,8.83,9.96
-6.76,4.25,5.83,9.89,-3.80,-2.46,8.79,9.89
-6.71,4.26,5.81,9.85,-3.82,-2.44,8.76,9.87
-6.70,4.24,5.73,9.78,-3.82,-2.41,8.70,9.81
-6.69,4.14,5.74,9.74,-3.85,-2.38,8.63,9.75
-6.70,4.12,5.76,9.75,-3.84,-2.34,8.65,9.75
-6.66,4.10,5.78,9.72,-3.84,-2.44,8.68,9.80
-6.70,4.20,5.79,9.80,-3.85,-2.44,8.75,9.87
-6.72,4.27,5.80,9.85,-3.82,-2.43,8.75,9.85
-6.75,4.29,5.82,9.89,-3.84,-2.44,8.76,9.87
-6.73,4.25,5.80,9.85,-3.83,-2.46,8.79,9.90
-6.69,4.21,5.84,9.83,-3.80,-2.44,8.78,9.87
-6.71,4.19,5.79,9.80,-3.82,-2.42,8.73,9.83
-6.72,4.24,5.75,9.81,-3.87,-2.37,8.69,9.80
-6.69,4.21,5.77,9.79,-3.85,-2.39,8.69,9.81
-6.64,4.19,5.74,9.73,-3.81,-2.46,8.72,9.83
-6.67,4.18,5.81,9.78,-3.81,-2.44,8.77,9.87
-6.74,4.25,5.85,9.89,-3.82,-2.44,8.80,9.90
-6.75,4.29,5.82,9.89,-3.82,-2.45,8.82,9.92
-6.70,4.33,5.80,9.87,-3.81,-2.45,8.79,9.88
-6.68,4.25,5.79,9.81,-3.78,-2.44,8.79,9.87
-6.72,4.21,5.79,9.82,-3.82,-2.42,8.75,9.85
-6.77,4.22,5.76,9.84,-3.83,-2.36,8.69,9.79
-6.76,4.19,5.72,9.80,-3.86,-2.34,8.64,9.75
-6.65,4.14,5.76,9.73,-3.84,-2.44,8.68,9.80
-6.60,4.10,5.82,9.71,-3.79,-2.51,8.78,9.88
-6.69,4.21,5.88,9.85,-3.83,-2.51,8.84,9.96
-6.78,4.35,5.86,9.96,-3.84,-2.51,8.81,9.93
-6.78,4.40,5.80,9.95,-3.82,-2.50,8.78,9.89
-6.67,4.25,5.78,9.80,-3.79,-2.46,8.73,9.83
-6.64,4.07,5.79,9.70,-3.85,-2.38,8.63,9.75
-6.73,3.99,5.75,9.71,-3.88,-2.31,8.58,9.70
-6.70,4.05,5.72,9.70,-3.86,-2.33,8.62,9.73
-6.66,4.15,5.74,9.72,-3.81,-2.44,8.74,9.85
-6.65,4.24,5.79,9.78,-3.84,-2.46,8.81,9.92
-6.75,4.33,5.83,9.91,-3.85,-2.48,8.82,9.93
-6.81,4.34,5.84,9.96,-3.87,-2.46,8.80,9.92
-6.69,4.25,5.83,9.84,-3.81,-2.49,8.77,9.88
-6.66,4.15,5.82,9.77,-3.82,-2.47,8.77,9.88
-6.65,4.14,5.87,9.79,-3.77,-2.47,8.80,9.89
-6.68,4.24,5.78,9.80,-3.79,-2.45,8.83,9.92
-6.76,4.37,5.72,9.88,-3.85,-2.37,8.70,9.80
-6.72,4.29,5.68,9.79,-3.82,-2.33,8.66,9.75
-6.66,4.11,5.72,9.69,-3.84,-2.34,8.67,9.77
-6.67,4.01,5.77,9.69,-3.84,-2.37,8.68,9.79
-6.72,4.18,5.82,9.82,-3.79,-2.44,8.79,9.87
-6.73,4.35,5.82,9.90,-3.79,-2.47,8.82,9.91
-6.72,4.42,5.83,9.93,-3.80,-2.50,8.86,9.96
-6.71,4.34,5.83,9.90,-3.84,-2.51,8.80,9.93
-6.70,4.23,5.82,9.83,-3.83,-2.46,8.73,9.85
-6.73,4.12,5.80,9.79,-3.87,-2.40,8.64,9.77
-6.68,4.08,5.78,9.73,-3.85,-2.43,8.66,9.78
-6.63,4.13,5.78,9.72,-3.85,-2.42,8.68,9.80
-6.67,4.18,5.77,9.76,-3.85,-2.40,8.67,9.79
-6.72,4.22,5.77,9.82,-3.83,-2.39,8.65,9.76
-6.70,4.21,5.81,9.82,-3.86,-2.46,8.76,9.88
-6.63,4.14,5.84,9.75,-3.84,-2.55,8.82,9.95
-6.65,4.19,5.86,9.80,-3.83,-2.53,8.90,10.01
-6.79,4.35,5.84,9.96,-3.76,-2.43,8.80,9.88
-6.84,4.43,5.76,9.98,-3.82,-2.36,8.77,9.85
-6.72,4.28,5.67,9.78,-3.85,-2.35,8.69,9.79
-6.65,4.08,5.71,9.66,-3.86,-2.32,8.65,9.75
-6.66,3.98,5.73,9.65,-3.85,-2.34,8.65,9.75
-6.74,4.05,5.79,9.76,-3.88,-2.34,8.68,9.79
-6.78,4.24,5.78,9.87,-3.87,-2.43,8.77,9.89
-6.68,4.35,5.81,9.86,-3.84,-2.51,8.77,9.90
-6.67,4.25,5.86,9.84,-3.86,-2.55,8.79,9.93
-6.72,4.21,5.88,9.87,-3.85,-2.52,8.77,9.90
-6.72,4.17,5.86,9.85,-3.86,-2.46,8.73,9.86
-6.71,4.18,5.77,9.79,-3.83,-2.43,8.68,9.80
-6.62,4.19,5.78,9.74,-3.78,-2.42,8.71,9.80
-6.63,4.20,5.76,9.73,-3.83,-2.43,8.75,9.86
-6.69,4.22,5.79,9.80,-3.80,-2.43,8.73,9.83
-6.75,4.25,5.76,9.84,-3.83,-2.41,8.75,9.85
-6.73,4.28,5.78,9.85,-3.84,-2.42,8.78,9.89
-6.73,4.25,5.81,9.86,-3.84,-2.41,8.79,9.89
-6.73,4.24,5.82,9.85,-3.79,-2.46,8.86,9.95
-6.74,4.28,5.81,9.88,-3.83,-2.46,8.86,9.96
-6.78,4.33,5.79,9.91,-3.82,-2.39,8.78,9.87
-6.77,4.31,5.74,9.87,-3.85,-2.36,8.68,9.79
-6.61,4.14,5.76,9.70,-3.87,-2.38,8.62,9.75
-6.61,4.01,5.78,9.65,-3.83,-2.44,8.63,9.75
-6.64,4.06,5.80,9.71,-3.82,-2.41,8.68,9.79
-6.72,4.17,5.81,9.81,-3.82,-2.43,8.71,9.82
-6.69,4.29,5.82,9.85,-3.85,-2.48,8.76,9.88
-6.67,4.27,5.86,9.85,-3.82,-2.54,8.85,9.97
-6.75,4.26,5.88,9.91,-3.85,-2.50,8.81,9.94
-6.78,4.28,5.77,9.88,-3.89,-2.41,8.70,9.83
-6.77,4.24,5.73,9.83,-3.85,-2.34,8.65,9.75
-6.63,4.06,5.66,9.61,-3.85,-2.33,8.61,9.72
-6.59,3.96,5.73,9.59,-3.82,-2.33,8.65,9.74
-6.66,4.09,5.77,9.72,-3.84,-2.38,8.67,9.78
-6.76,4.22,5.81,9.86,-3.83,-2.43,8.82,9.92
-6.75,4.35,5.84,9.93,-3.81,-2.50,8.90,10.00
-6.72,4.40,5.86,9.94,-3.80,-2.51,8.86,9.96
-6.74,4.34,5.82,9.90,-3.83,-2.50,8.79,9.91
-6.74,4.23,5.81,9.85,-3.85,-2.38,8.70,9.81
-6.69,4.14,5.74,9.74,-3.82,-2.34,8.65,9.74
-6.67,4.11,5.73,9.71,-3.83,-2.33,8.67,9.76
-6.68,4.16,5.76,9.75,-3.83,-2.40,8.72,9.83
-6.75,4.22,5.76,9.82,-3.82,-2.43,8.74,9.84
-6.75,4.28,5.80,9.88,-3.83,-2.43,8.76,9.86
-6.73,4.28,5.80,9.87,-3.85,-2.46,8.82,9.94
-6.70,4.22,5.81,9.83,-3.88,-2.48,8.74,9.88
-6.72,4.20,5.80,9.83,-3.85,-2.44,8.77,9.89
-6.71,4.22,5.82,9.84,-3.78,-2.45,8.76,9.85
-6.68,4.24,5.80,9.81,-3.82,-2.43,8.74,9.84
-6.65,4.23,5.78,9.77,-3.84,-2.45,8.73,9.85
-6.72,4.20,5.78,9.81,-3.85,-2.39,8.68,9.79
-6.75,4.17,5.77,9.81,-3.87,-2.35,8.64,9.76
-6.72,4.13,5.75,9.76,-3.86,-2.37,8.68,9.79
-6.69,4.12,5.77,9.75,-3.86,-2.40,8.73,9.84
-6.70,4.16,5.79,9.78,-3.85,-2.40,8.71,9.82
-6.74,4.26,5.80,9.86,-3.85,-2.40,8.77,9.88
-6.69,4.28,5.82,9.85,-3.78,-2.53,8.84,9.94
-6.67,4.25,5.85,9.84,-3.82,-2.52,8.80,9.92
-6.74,4.26,5.80,9.86,-3.86,-2.40,8.70,9.82
-6.77,4.23,5.75,9.84,-3.87,-2.34,8.65,9.76
-6.65,4.10,5.75,9.70,-3.84,-2.37,8.64,9.74
-6.62,4.04,5.77,9.67,-3.82,-2.43,8.69,9.80
-6.62,4.12,5.84,9.74,-3.82,-2.44,8.79,9.88
-6.74,4.24,5.83,9.87,-3.84,-2.46,8.82,9.93
-6.77,4.40,5.79,9.94,-3.84,-2.46,8.83,9.94
-6.74,4.34,5.80,9.89,-3.85,-2.49,8.82,9.94
-6.68,4.20,5.82,9.80,-3.86,-2.46,8.78,9.90
-6.72,4.14,5.77,9.77,-3.86,-2.34,8.74,9.83
-6.76,4.16,5.72,9.78,-3.84,-2.28,8.67,9.76
-6.72,4.19,5.72,9.77,-3.83,-2.28,8.66,9.74
-6.67,4.16,5.73,9.73,-3.82,-2.38,8.69,9.78
-6.69,4.19,5.77,9.77,-3.80,-2.42,8.78,9.87
-6.73,4.23,5.81,9.85,-3.84,-2.46,8.80,9.91
-6.75,4.25,5.85,9.89,-3.86,-2.50,8.79,9.92
-6.75,4.30,5.82,9.90,-3.87,-2.50,8.81,9.94
-6.69,4.25,5.81,9.83,-3.84,-2.48,8.71,9.84
-6.69,4.17,5.78,9.78,-3.82,-2.38,8.66,9.76
-6.70,4.09,5.76,9.74,-3.89,-2.36,8.64,9.76
-6.69,4.09,5.76,9.73,-3.87,-2.36,8.65,9.77
-6.70,4.15,5.78,9.77,-3.83,-2.41,8.70,9.80
-6.72,4.21,5.81,9.84,-3.80,-2.42,8.74,9.83
-6.73,4.27,5.80,9.86,-3.83,-2.46,8.78,9.89
-6.75,4.29,5.79,9.87,-3.85,-2.46,8.76,9.88
-6.72,4.24,5.81,9.84,-3.84,-2.42,8.78,9.88
-6.70,4.19,5.81,9.81,-3.83,-2.41,8.78,9.88
-6.75,4.24,5.78,9.85,-3.81,-2.39,8.77,9.86
-6.78,4.29,5.73,9.86,-3.85,-2.37,8.72,9.82
-6.71,4.26,5.72,9.79,-3.84,-2.36,8.68,9.78
-6.66,4.15,5.79,9.75,-3.85,-2.41,8.69,9.80
-6.68,4.10,5.81,9.76,-3.81,-2.44,8.73,9.83
-6.72,4.18,5.82,9.82,-3.85,-2.45,8.73,9.85
-6.73,4.28,5.80,9.86,-3.83,-2.48,8.75,9.87
-6.71,4.29,5.85,9.88,-3.83,-2.49,8.79,9.91
-6.69,4.25,5.78,9.81,-3.83,-2.43,8.75,9.85
-6.75,4.22,5.76,9.83,-3.85,-2.35,8.67,9.77
-6.72,4.16,5.73,9.76,-3.82,-2.33,8.63,9.73
-6.64,4.09,5.74,9.69,-3.85,-2.38,8.66,9.77
-6.64,4.10,5.76,9.70,-3.86,-2.40,8.73,9.84
-6.73,4.22,5.81,9.84,-3.85,-2.45,8.79,9.90
-6.80,4.35,5.78,9.93,-3.88,-2.45,8.77,9.90
-6.76,4.34,5.80,9.91,-3.81,-2.46,8.79,9.89
-6.69,4.23,5.79,9.81,-3.84,-2.48,8.78,9.90
-6.67,4.14,5.77,9.75,-3.83,-2.39,8.66,9.77
-6.76,4.10,5.76,9.78,-3.85,-2.37,8.66,9.77
-6.72,4.16,5.74,9.77,-3.86,-2.33,8.69,9.79
-6.71,4.16,5.74,9.76,-3.84,-2.40,8.74,9.84
-6.67,4.18,5.78,9.76,-3.83,-2.41,8.77,9.87
-6.74,4.30,5.82,9.89,-3.82,-2.49,8.83,9.94
-6.76,4.37,5.82,9.94,-3.85,-2.47,8.85,9.96
-6.74,4.35,5.79,9.89,-3.83,-2.47,8.79,9.90
-6.71,4.23,5.78,9.81,-3.84,-2.40,8.72,9.83
-6.71,4.12,5.74,9.74,-3.85,-2.29,8.58,9.68
-6.72,4.05,5.70,9.70,-3.88,-2.31,8.57,9.69
-6.68,4.04,5.77,9.70,-3.86,-2.37,8.67,9.78
-6.64,4.10,5.81,9.73,-3.85,-2.46,8.74,9.86
-6.65,4.26,5.84,9.82,-3.85,-2.51,8.83,9.96
-6.77,4.37,5.85,9.96,-3.82,-2.51,8.87,9.98
-6.82,4.43,5.82,10.00,-3.81,-2.49,8.88,9.98
-6.72,4.27,5.77,9.83,-3.85,-2.43,8.78,9.89
-6.72,4.14,5.72,9.75,-3.86,-2.34,8.70,9.80
-6.70,4.07,5.72,9.70,-3.81,-2.28,8.64,9.71
-6.70,4.10,5.71,9.72,-3.82,-2.29,8.65,9.73
-6.67,4.17,5.71,9.72,-3.86,-2.35,8.66,9.77
-6.70,4.23,5.74,9.79,-3.86,-2.39,8.74,9.84
-6.74,4.26,5.79,9.85,-3.86,-2.46,8.80,9.92
-6.76,4.27,5.84,9.90,-3.88,-2.50,8.79,9.93
-6.73,4.23,5.82,9.85,-3.88,-2.52,8.76,9.90
-6.73,4.19,5.82,9.84,-3.86,-2.49,8.74,9.88
-6.70,4.18,5.81,9.81,-3.86,-2.44,8.71,9.84
-6.65,4.14,5.80,9.75,-3.86,-2.41,8.61,9.74
-6.64,4.14,5.77,9.72,-3.88,-2.40,8.62,9.75
-6.64,4.15,5.78,9.73,-3.80,-2.40,8.73,9.82
-6.72,4.19,5.79,9.81,-3.82,-2.46,8.78,9.89
-6.78,4.27,5.78,9.89,-3.84,-2.44,8.81,9.91
-6.80,4.32,5.78,9.92,-3.85,-2.38,8.80,9.90
-6.79,4.30,5.76,9.89,-3.86,-2.41,8.77,9.88
-6.73,4.27,5.76,9.83,-3.74,-2.29,8.71,9.75
-6.68,4.20,5.75,9.77,-3.85,-2.32,8.75,9.84
-6.73,4.21,5.77,9.82,-3.80,-2.43,8.79,9.87
-6.77,4.24,5.78,9.86,-3.87,-2.43,8.75,9.87
-6.76,4.27,5.79,9.87,-3.89,-2.44,8.71,9.85
-6.76,4.27,5.78,9.87,-3.86,-2.42,8.75,9.86
-6.71,4.14,5.77,9.77,-3.89,-2.45,8.71,9.85
-6.72,4.13,5.79,9.78,-3.89,-2.44,8.68,9.82
-6.71,4.14,5.78,9.78,-3.84,-2.39,8.67,9.78
-6.71,4.16,5.76,9.77,-3.84,-2.44,8.68,9.80
-6.69,4.21,5.78,9.79,-3.82,-2.44,8.73,9.84
-6.68,4.23,5.80,9.81,-3.86,-2.45,8.78,9.90
-6.71,4.26,5.82,9.86,-3.84,-2.52,8.78,9.91
-6.75,4.25,5.82,9.88,-3.86,-2.46,8.76,9.88
-6.79,4.23,5.76,9.86,-3.88,-2.38,8.73,9.85
-6.73,4.16,5.72,9.76,-3.86,-2.31,8.64,9.74
-6.73,4.10,5.73,9.74,-3.85,-2.34,8.66,9.76
-6.72,4.11,5.73,9.74,-3.85,-2.34,8.68,9.78
-6.71,4.20,5.76,9.79,-3.82,-2.38,8.78,9.86
-6.73,4.26,5.79,9.85,-3.86,-2.43,8.78,9.90
-6.77,4.38,5.78,9.92,-3.83,-2.46,8.84,9.94
-6.76,4.30,5.78,9.88,-3.84,-2.47,8.82,9.93
-6.73,4.23,5.78,9.83,-3.87,-2.44,8.75,9.88
-6.72,4.17,5.77,9.79,-3.85,-2.38,8.72,9.82
-6.70,4.11,5.75,9.74,-3.85,-2.37,8.67,9.78
-6.67,4.14,5.75,9.73,-3.86,-2.38,8.69,9.80
-6.71,4.15,5.76,9.77,-3.89,-2.43,8.68,9.82
-6.70,4.17,5.77,9.77,-3.87,-2.40,8.70,9.82
-6.74,4.18,5.78,9.81,-3.86,-2.39,8.75,9.86
-6.74,4.20,5.82,9.85,-3.82,-2.47,8.80,9.91
-6.70,4.24,5.83,9.84,-3.87,-2.50,8.80,9.93
-6.74,4.28,5.80,9.87,-3.84,-2.44,8.79,9.89
-6.75,4.27,5.78,9.86,-3.84,-2.40,8.75,9.86
-6.76,4.25,5.74,9.83,-3.81,-2.32,8.72,9.79
-6.76,4.21,5.67,9.78,-3.84,-2.30,8.64,9.73
-6.68,4.14,5.71,9.72,-3.85,-2.30,8.67,9.76
-6.70,4.13,5.75,9.75,-3.83,-2.38,8.74,9.83
-6.73,4.19,5.78,9.82,-3.90,-2.42,8.78,9.91
-6.78,4.30,5.80,9.91,-3.87,-2.44,8.81,9.93
-6.78,4.32,5.78,9.91,-3.84,-2.46,8.80,9.92
-6.71,4.24,5.79,9.83,-3.85,-2.48,8.75,9.87
-6.71,4.16,5.77,9.78,-3.85,-2.44,8.66,9.78
-6.68,4.11,5.78,9.74,-3.85,-2.37,8.67,9.77
-6.72,4.14,5.75,9.76,-3.85,-2.38,8.67,9.78
-6.69,4.18,5.77,9.78,-3.86,-2.44,8.75,9.87
-6.68,4.21,5.80,9.79,-3.88,-2.50,8.80,9.94
-6.76,4.24,5.79,9.86,-3.85,-2.40,8.74,9.85
-6.80,4.26,5.79,9.89,-3.85,-2.39,8.71,9.81
-6.74,4.21,5.76,9.81,-3.86,-2.42,8.73,9.85
-6.69,4.11,5.76,9.74,-3.85,-2.41,8.71,9.82
-6.75,4.13,5.75,9.78,-3.81,-2.34,8.76,9.84
-6.78,4.25,5.74,9.84,-3.83,-2.35,8.69,9.78
-6.78,4.27,5.72,9.84,-3.85,-2.37,8.69,9.80
-6.69,4.24,5.76,9.79,-3.84,-2.42,8.72,9.83
-6.68,4.16,5.82,9.79,-3.83,-2.46,8.79,9.90
-6.75,4.25,5.85,9.90,-3.84,-2.46,8.82,9.93
-6.86,4.33,5.79,9.96,-3.85,-2.40,8.78,9.88
-6.83,4.35,5.71,9.91,-3.83,-2.33,8.68,9.77
-6.74,4.23,5.69,9.78,-3.88,-2.33,8.65,9.77
-6.60,3.99,5.71,9.60,-3.85,-2.36,8.64,9.75
-6.66,4.01,5.77,9.68,-3.85,-2.39,8.69,9.80
-6.77,4.13,5.81,9.83,-3.84,-2.42,8.72,9.83
-6.77,4.30,5.81,9.90,-3.85,-2.50,8.76,9.89
-6.70,4.32,5.84,9.88,-3.84,-2.56,8.88,10.01
-6.70,4.22,5.87,9.86,-3.84,-2.55,8.87,10.00
-6.81,4.22,5.83,9.91,-3.90,-2.41,8.75,9.88
-6.91,4.23,5.74,9.93,-3.86,-2.30,8.66,9.76
-6.80,4.21,5.65,9.79,-3.88,-2.31,8.63,9.74
-6.58,4.05,5.69,9.60,-3.83,-2.32,8.61,9.70
-6.66,4.05,5.71,9.66,-3.84,-2.28,8.64,9.73
-6.75,4.18,5.75,9.80,-3.86,-2.36,8.73,9.83
-6.82,4.28,5.78,9.91,-3.87,-2.44,8.78,9.90
-6.76,4.30,5.82,9.90,-3.88,-2.51,8.84,9.98
-6.67,4.27,5.84,9.85,-3.84,-2.54,8.84,9.97
-6.72,4.23,5.83,9.85,-3.85,-2.50,8.81,9.94
-6.77,4.21,5.77,9.84,-3.84,-2.39,8.72,9.82
-6.76,4.21,5.70,9.79,-3.84,-2.33,8.68,9.78
-6.70,4.16,5.71,9.73,-3.89,-2.34,8.66,9.77
-6.68,4.08,5.74,9.71,-3.86,-2.36,8.71,9.82
-6.75,4.14,5.76,9.80,-3.86,-2.40,8.71,9.82
-6.80,4.22,5.78,9.87,-3.88,-2.40,8.74,9.86
-6.77,4.32,5.75,9.88,-3.87,-2.43,8.71,9.83
-6.71,4.26,5.74,9.80,-3.84,-2.48,8.76,9.88
-6.64,4.14,5.82,9.75,-3.87,-2.47,8.75,9.88
-6.69,4.15,5.80,9.78,-3.88,-2.46,8.77,9.90
-6.78,4.25,5.81,9.89,-3.78,-2.43,8.80,9.89
-6.82,4.30,5.78,9.92,-3.83,-2.41,8.80,9.90
-6.77,4.30,5.72,9.86,-3.85,-2.39,8.67,9.78
-6.69,4.17,5.70,9.73,-3.89,-2.36,8.67,9.79
-6.72,4.10,5.69,9.72,-3.89,-2.31,8.66,9.77
-6.75,4.09,5.74,9.76,-3.83,-2.32,8.71,9.79
-6.76,4.18,5.75,9.81,-3.88,-2.40,8.73,9.85
-6.75,4.25,5.78,9.86,-3.87,-2.45,8.77,9.89
-6.70,4.28,5.78,9.83,-3.90,-2.46,8.79,9.92
-6.72,4.24,5.83,9.86,-3.83,-2.46,8.79,9.90
-6.73,4.17,5.83,9.84,-3.89,-2.51,8.76,9.91
-6.73,4.19,5.81,9.82,-3.87,-2.45,8.75,9.88
-6.79,4.23,5.74,9.84,-3.85,-2.39,8.67,9.78
-6.69,4.21,5.69,9.74,-3.85,-2.34,8.69,9.79
-6.66,4.13,5.73,9.70,-3.84,-2.38,8.68,9.78
-6.71,4.12,5.77,9.76,-3.84,-2.37,8.76,9.85
-6.76,4.20,5.76,9.83,-3.86,-2.44,8.82,9.93
-6.83,4.32,5.79,9.94,-3.90,-2.45,8.82,9.95
-6.80,4.33,5.74,9.89,-3.87,-2.39,8.76,9.87
-6.76,4.27,5.73,9.84,-3.85,-2.36,8.66,9.77
-6.69,4.14,5.73,9.73,-3.83,-2.35,8.68,9.77
-6.64,4.04,5.77,9.68,-3.84,-2.35,8.70,9.79
-6.72,4.12,5.76,9.76,-3.89,-2.37,8.72,9.84
-6.75,4.27,5.77,9.86,-3.82,-2.43,8.78,9.88
-6.73,4.29,5.78,9.85,-3.84,-2.50,8.80,9.92
-6.71,4.23,5.77,9.81,-3.86,-2.51,8.78,9.91
-6.75,4.19,5.78,9.83,-3.91,-2.46,8.76,9.90
-6.81,4.18,5.75,9.85,-3.89,-2.36,8.70,9.82
-6.75,4.13,5.76,9.79,-3.86,-2.38,8.68,9.79
-6.71,4.16,5.73,9.76,-3.87,-2.41,8.74,9.85
-6.71,4.17,5.76,9.78,-3.87,-2.41,8.74,9.86
-6.76,4.23,5.74,9.82,-3.86,-2.38,8.70,9.81
-6.75,4.24,5.75,9.83,-3.86,-2.38,8.71,9.82
-6.72,4.18,5.78,9.80,-3.87,-2.42,8.75,9.87
-6.73,4.15,5.79,9.80,-3.87,-2.42,8.73,9.85
-6.78,4.20,5.74,9.83,-3.88,-2.37,8.71,9.82
-6.77,4.25,5.73,9.84,-3.77,-2.34,8.79,9.84
-6.71,4.26,5.76,9.81,-3.78,-2.42,8.80,9.88
-6.72,4.28,5.76,9.83,-3.82,-2.43,8.83,9.92
-6.75,4.27,5.72,9.82,-3.85,-2.41,8.75,9.86
-6.79,4.27,5.72,9.85,-3.86,-2.36,8.70,9.81
-6.71,4.11,5.78,9.76,-3.86,-2.49,8.71,9.85
-6.66,4.09,5.79,9.73,-3.88,-2.47,8.76,9.89
-6.69,4.10,5.80,9.76,-3.83,-2.43,8.72,9.83
-6.77,4.20,5.81,9.86,-3.84,-2.43,8.75,9.86
-6.78,4.29,5.77,9.88,-3.85,-2.47,8.80,9.92
-6.73,4.22,5.75,9.81,-3.90,-2.41,8.77,9.90
-6.78,4.15,5.72,9.80,-3.85,-2.37,8.71,9.81
-6.76,4.06,5.70,9.73,-3.88,-2.30,8.62,9.73
-6.71,4.01,5.76,9.71,-3.86,-2.31,8.69,9.79
-6.74,4.16,5.75,9.79,-3.84,-2.39,8.77,9.86
-6.82,4.43,5.72,9.94,-3.87,-2.44,8.83,9.94
-6.80,4.39,5.75,9.93,-3.83,-2.42,8.81,9.91
-6.76,4.26,5.77,9.86,-3.83,-2.41,8.76,9.86
-6.74,4.14,5.75,9.78,-3.92,-2.36,8.67,9.80
-6.77,4.12,5.73,9.78,-3.84,-2.32,8.71,9.80
-6.74,4.11,5.73,9.76,-3.84,-2.34,8.65,9.75
-6.69,4.15,5.74,9.74,-3.87,-2.38,8.74,9.86
-6.74,4.22,5.74,9.81,-3.83,-2.42,8.75,9.86
-6.80,4.29,5.75,9.88,-3.82,-2.42,8.77,9.86
-6.82,4.30,5.78,9.92,-3.85,-2.43,8.81,9.91
-6.72,4.22,5.79,9.82,-3.81,-2.49,8.83,9.93
-6.73,4.17,5.80,9.81,-3.87,-2.41,8.75,9.87
-6.78,4.18,5.73,9.81,-3.83,-2.33,8.69,9.77
-6.77,4.16,5.72,9.79,-3.86,-2.34,8.70,9.80
-6.68,4.17,5.72,9.74,-3.85,-2.40,8.68,9.79
-6.67,4.15,5.72,9.72,-3.86,-2.43,8.73,9.84
-6.67,4.18,5.76,9.76,-3.83,-2.42,8.73,9.84
-6.77,4.20,5.81,9.86,-3.82,-2.42,8.79,9.89
-6.77,4.28,5.78,9.88,-3.90,-2.45,8.81,9.94
-6.75,4.28,5.74,9.84,-3.86,-2.45,8.80,9.92
-6.78,4.22,5.75,9.84,-3.83,-2.40,8.79,9.89
-6.77,4.20,5.71,9.81,-3.83,-2.31,8.72,9.80
-6.80,4.22,5.67,9.81,-3.88,-2.30,8.65,9.76
-6.72,4.14,5.67,9.72,-3.89,-2.35,8.65,9.77
-6.67,4.10,5.71,9.69,-3.91,-2.34,8.67,9.80
-6.72,4.10,5.74,9.74,-3.87,-2.39,8.68,9.80
-6.79,4.14,5.78,9.83,-3.83,-2.40,8.75,9.85
-6.80,4.25,5.80,9.90,-3.87,-2.44,8.78,9.90
-6.76,4.26,5.78,9.86,-3.90,-2.47,8.80,9.94
-6.77,4.28,5.75,9.86,-3.91,-2.40,8.71,9.84
-6.76,4.19,5.72,9.80,-3.83,-2.33,8.70,9.78
-6.71,4.13,5.72,9.73,-3.84,-2.35,8.68,9.78
-6.69,4.11,5.70,9.70,-3.82,-2.36,8.74,9.83
-6.75,4.24,5.71,9.80,-3.84,-2.33,8.73,9.82
-6.81,4.29,5.72,9.87,-3.84,-2.34,8.74,9.83
-6.77,4.26,5.75,9.85,-3.86,-2.39,8.76,9.86
-6.75,4.23,5.74,9.82,-3.87,-2.37,8.74,9.85
-6.76,4.17,5.75,9.81,-3.87,-2.36,8.72,9.83
-6.73,4.16,5.75,9.78,-3.86,-2.41,8.70,9.82
-6.71,4.16,5.76,9.77,-3.85,-2.43,8.75,9.87
-6.74,4.19,5.74,9.79,-3.88,-2.43,8.73,9.86
-6.74,4.19,5.77,9.81,-3.89,-2.39,8.74,9.86
-6.74,4.20,5.78,9.82,-3.84,-2.43,8.76,9.87
-6.70,4.17,5.80,9.79,-3.90,-2.46,8.81,9.94
-6.75,4.22,5.78,9.84,-3.86,-2.42,8.78,9.89
-6.80,4.26,5.74,9.87,-3.83,-2.34,8.73,9.82
-6.80,4.28,5.70,9.85,-3.83,-2.35,8.74,9.83
-6.74,4.21,5.72,9.79,-3.83,-2.38,8.72,9.82
-6.71,4.16,5.74,9.76,-3.88,-2.37,8.76,9.87
-6.75,4.17,5.77,9.81,-3.87,-2.38,8.76,9.87
-6.81,4.27,5.76,9.89,-3.84,-2.42,8.79,9.89
-6.78,4.33,5.74,9.88,-3.82,-2.42,8.76,9.86
-6.76,4.30,5.74,9.85,-3.83,-2.42,8.76,9.86
-6.74,4.17,5.75,9.79,-3.87,-2.39,8.77,9.88
-6.75,4.14,5.72,9.77,-3.84,-2.35,8.68,9.78
-6.77,4.17,5.70,9.78,-3.84,-2.34,8.68,9.77
-6.71,4.16,5.74,9.76,-3.85,-2.41,8.71,9.82
-6.72,4.13,5.77,9.77,-3.86,-2.45,8.79,9.91
-6.76,4.22,5.77,9.84,-3.87,-2.41,8.74,9.86
-6.79,4.25,5.75,9.86,-3.86,-2.40,8.75,9.85
-6.72,4.26,5.76,9.82,-3.83,-2.44,8.75,9.86
-6.68,4.20,5.73,9.76,-3.85,-2.42,8.77,9.88
-6.70,4.16,5.74,9.75,-3.88,-2.39,8.74,9.85
-6.78,4.21,5.75,9.84,-3.80,-2.36,8.75,9.83
-6.81,4.22,5.75,9.86,-3.82,-2.38,8.77,9.86
-6.78,4.26,5.71,9.83,-3.85,-2.35,8.72,9.82
-6.78,4.27,5.70,9.84,-3.85,-2.36,8.70,9.80
-6.74,4.19,5.68,9.76,-3.90,-2.35,8.69,9.81
-6.75,4.14,5.71,9.76,-3.86,-2.32,8.69,9.79
-6.73,4.14,5.79,9.80,-3.82,-2.39,8.81,9.89
-6.73,4.22,5.78,9.83,-3.82,-2.49,8.80,9.91
-6.76,4.34,5.78,9.89,-3.84,-2.49,8.80,9.91
-6.76,4.32,5.74,9.87,-3.85,-2.44,8.73,9.85
-6.73,4.18,5.74,9.78,-3.90,-2.38,8.69,9.82
-6.70,4.02,5.75,9.70,-3.92,-2.39,8.65,9.79
-6.72,4.01,5.76,9.71,-3.86,-2.41,8.65,9.78
-6.71,4.08,5.75,9.73,-3.85,-2.36,8.70,9.80
-6.73,4.27,5.73,9.82,-3.85,-2.41,8.71,9.82
-6.71,4.28,5.78,9.83,-3.87,-2.48,8.77,9.90
-6.69,4.23,5.79,9.80,-3.89,-2.49,8.80,9.93
-6.77,4.22,5.76,9.85,-3.87,-2.41,8.80,9.91
-6.91,4.27,5.73,9.94,-3.81,-2.32,8.79,9.85
-6.80,4.26,5.69,9.84,-3.84,-2.30,8.75,9.83
-6.72,4.20,5.65,9.73,-3.84,-2.32,8.70,9.79
-6.70,4.16,5.66,9.71,-3.84,-2.29,8.70,9.78
-6.77,4.20,5.69,9.79,-3.82,-2.29,8.73,9.80
-6.80,4.27,5.73,9.87,-3.85,-2.32,8.75,9.84
-6.74,4.30,5.75,9.85,-3.83,-2.46,8.78,9.89
-6.74,4.26,5.77,9.84,-3.84,-2.48,8.80,9.92
-6.74,4.20,5.79,9.83,-3.88,-2.46,8.74,9.87
-6.73,4.15,5.81,9.81,-3.87,-2.46,8.70,9.83
-6.72,4.15,5.78,9.79,-3.83,-2.48,8.73,9.85
-6.71,4.18,5.76,9.78,-3.87,-2.43,8.70,9.83
-6.73,4.22,5.77,9.82,-3.83,-2.44,8.73,9.84
-6.73,4.21,5.76,9.80,-3.84,-2.45,8.76,9.88
-6.70,4.19,5.74,9.76,-3.87,-2.41,8.71,9.83
-6.76,4.23,5.74,9.82,-3.84,-2.34,8.76,9.84
-6.74,4.20,5.73,9.80,-3.82,-2.36,8.74,9.83
-6.76,4.22,5.71,9.81,-3.89,-2.37,8.69,9.81
-6.75,4.23,5.69,9.79,-3.82,-2.34,8.70,9.79
-6.77,4.22,5.71,9.81,-3.80,-2.38,8.77,9.85
-6.73,4.17,5.77,9.80,-3.84,-2.43,8.81,9.92
-6.73,4.20,5.79,9.82,-3.87,-2.48,8.74,9.87
-6.75,4.24,5.76,9.83,-3.83,-2.47,8.78,9.89
-6.78,4.29,5.77,9.88,-3.88,-2.44,8.76,9.89
-6.75,4.24,5.73,9.81,-3.87,-2.37,8.72,9.83
-6.74,4.14,5.73,9.76,-3.85,-2.37,8.70,9.80
-6.73,4.09,5.73,9.74,-3.90,-2.37,8.66,9.78
-6.76,4.12,5.72,9.77,-3.82,-2.35,8.78,9.86
-6.77,4.23,5.70,9.81,-3.89,-2.38,8.76,9.87
-6.75,4.30,5.74,9.85,-3.82,-2.41,8.83,9.91
-6.81,4.32,5.73,9.89,-3.81,-2.43,8.82,9.91
-6.78,4.30,5.73,9.86,-3.88,-2.37,8.76,9.87
-6.77,4.22,5.72,9.82,-3.88,-2.38,8.72,9.83
-6.69,4.16,5.72,9.74,-3.84,-2.42,8.77,9.88
-6.72,4.13,5.77,9.77,-3.82,-2.43,8.76,9.86
-6.77,4.23,5.75,9.84,-3.88,-2.38,8.73,9.85
-6.76,4.27,5.73,9.84,-3.86,-2.40,8.70,9.81
-6.74,4.21,5.73,9.79,-3.88,-2.44,8.72,9.85
-6.71,4.14,5.75,9.75,-3.84,-2.43,8.73,9.84
-6.75,4.15,5.77,9.80,-3.86,-2.37,8.74,9.85
-6.79,4.24,5.74,9.85,-3.84,-2.34,8.74,9.83
-6.79,4.27,5.71,9.84,-3.82,-2.34,8.77,9.85
-6.77,4.30,5.70,9.84,-3.82,-2.37,8.76,9.85
-6.75,4.25,5.69,9.80,-3.87,-2.34,8.77,9.87
-6.74,4.20,5.75,9.80,-3.86,-2.38,8.69,9.80
-6.73,4.18,5.75,9.79,-3.86,-2.36,8.71,9.81
-6.70,4.20,5.77,9.79,-3.85,-2.45,8.78,9.89
-6.73,4.21,5.74,9.80,-3.86,-2.49,8.81,9.94
-6.73,4.27,5.82,9.87,-3.87,-2.50,8.83,9.96
-6.76,4.27,5.75,9.85,-3.90,-2.45,8.77,9.91
-6.78,4.25,5.77,9.87,-3.89,-2.38,8.74,9.86
-6.78,4.16,5.75,9.82,-3.88,-2.36,8.71,9.82
-6.77,4.14,5.71,9.78,-3.88,-2.32,8.68,9.79
-6.80,4.19,5.66,9.79,-3.85,-2.26,8.65,9.73
-6.71,4.18,5.65,9.72,-3.88,-2.27,8.65,9.75
-6.71,4.20,5.69,9.75,-3.81,-2.35,8.69,9.78
-6.71,4.18,5.72,9.75,-3.86,-2.38,8.74,9.85
-6.76,4.23,5.76,9.84,-3.85,-2.41,8.83,9.93
-6.79,4.29,5.81,9.91,-3.85,-2.49,8.84,9.96
-6.79,4.31,5.81,9.93,-3.87,-2.48,8.81,9.93
-6.80,4.29,5.75,9.88,-3.91,-2.41,8.73,9.86
-6.74,4.19,5.70,9.77,-3.85,-2.33,8.72,9.81
-6.72,4.10,5.71,9.73,-3.84,-2.34,8.64,9.74
-6.65,4.10,5.70,9.68,-3.89,-2.36,8.68,9.80
-6.73,4.21,5.71,9.78,-3.83,-2.35,8.72,9.81
-6.79,4.30,5.73,9.86,-3.87,-2.36,8.75,9.86
-6.81,4.34,5.73,9.90,-3.85,-2.37,8.79,9.88
-6.74,4.26,5.75,9.83,-3.86,-2.43,8.80,9.91
-6.75,4.23,5.77,9.83,-3.81,-2.42,8.79,9.88
-6.79,4.24,5.76,9.86,-3.83,-2.37,8.75,9.84
-6.78,4.26,5.72,9.84,-3.89,-2.37,8.71,9.83
-6.73,4.21,5.70,9.77,-3.87,-2.36,8.68,9.79
-6.71,4.13,5.71,9.73,-3.89,-2.36,8.69,9.81
-6.71,4.08,5.75,9.73,-3.89,-2.39,8.66,9.79
-6.75,4.15,5.75,9.79,-3.88,-2.37,8.70,9.81
-6.76,4.24,5.74,9.83,-3.84,-2.41,8.74,9.85
-6.75,4.27,5.74,9.84,-3.84,-2.43,8.79,9.89
-6.75,4.27,5.72,9.82,-3.87,-2.37,8.76,9.86
-6.80,4.22,5.70,9.83,-3.85,-2.33,8.73,9.83
-6.75,4.18,5.71,9.78,-3.86,-2.35,8.70,9.80
-6.73,4.19,5.72,9.77,-3.88,-2.36,8.73,9.84
-6.74,4.20,5.70,9.78,-3.88,-2.36,8.74,9.85
-6.77,4.28,5.74,9.85,-3.85,-2.39,8.76,9.86
-6.78,4.24,5.75,9.85,-3.86,-2.45,8.77,9.89
-6.76,4.23,5.76,9.84,-3.86,-2.45,8.80,9.91
-6.77,4.22,5.76,9.85,-3.85,-2.41,8.77,9.88
-6.77,4.23,5.76,9.85,-3.86,-2.37,8.70,9.80
-6.77,4.22,5.71,9.81,-3.87,-2.35,8.71,9.81
-6.71,4.19,5.70,9.75,-3.86,-2.37,8.72,9.83
-6.69,4.19,5.71,9.74,-3.83,-2.37,8.72,9.81
-6.73,4.19,5.72,9.78,-3.86,-2.33,8.71,9.80
-6.76,4.24,5.72,9.81,-3.81,-2.39,8.79,9.88
-6.76,4.28,5.73,9.84,-3.85,-2.41,8.76,9.86
-6.80,4.29,5.74,9.88,-3.88,-2.38,8.77,9.88
-6.82,4.26,5.75,9.88,-3.88,-2.40,8.74,9.86
-6.77,4.16,5.76,9.82,-3.90,-2.41,8.70,9.83
-6.73,4.13,5.76,9.77,-3.85,-2.43,8.71,9.83
-6.71,4.16,5.76,9.78,-3.89,-2.40,8.72,9.85
-6.70,4.15,5.80,9.78,-3.85,-2.46,8.75,9.87
-6.74,4.24,5.80,9.85,-3.86,-2.47,8.78,9.90
-6.77,4.30,5.76,9.87,-3.86,-2.42,8.71,9.82
-6.79,4.33,5.68,9.85,-3.86,-2.35,8.70,9.80
-6.68,4.17,5.71,9.73,-3.89,-2.37,8.67,9.79
-6.65,4.11,5.73,9.69,-3.85,-2.38,8.74,9.85
-6.74,4.13,5.72,9.76,-3.87,-2.34,8.74,9.84
-6.86,4.27,5.71,9.89,-3.88,-2.28,8.76,9.85
-6.88,4.37,5.68,9.93,-3.79,-2.35,8.76,9.83
-6.75,4.30,5.69,9.82,-3.86,-2.39,8.81,9.91
-6.74,4.23,5.77,9.83,-3.87,-2.43,8.83,9.94
-6.78,4.20,5.78,9.85,-3.83,-2.45,8.78,9.89
-6.82,4.25,5.75,9.88,-3.84,-2.44,8.77,9.88
-6.78,4.26,5.75,9.86,-3.84,-2.39,8.73,9.83
-6.70,4.19,5.71,9.75,-3.89,-2.43,8.66,9.80
-6.70,4.10,5.76,9.74,-3.93,-2.40,8.64,9.79
-6.73,4.08,5.73,9.73,-3.92,-2.35,8.68,9.81
-6.79,4.14,5.75,9.81,-3.88,-2.34,8.69,9.80
-6.75,4.22,5.71,9.80,-3.83,-2.36,8.73,9.83
-6.72,4.29,5.72,9.81,-3.87,-2.42,8.75,9.87
-6.73,4.29,5.73,9.82,-3.85,-2.40,8.79,9.89
-6.77,4.28,5.70,9.83,-3.84,-2.37,8.79,9.88
-6.79,4.24,5.72,9.84,-3.83,-2.35,8.75,9.83
-6.72,4.22,5.72,9.79,-3.83,-2.37,8.72,9.81
-6.70,4.18,5.73,9.76,-3.87,-2.42,8.73,9.85
-6.76,4.20,5.74,9.81,-3.88,-2.40,8.79,9.90
-6.79,4.24,5.76,9.86,-3.88,-2.41,8.77,9.89
-6.79,4.24,5.73,9.85,-3.90,-2.39,8.72,9.84
-6.75,4.19,5.73,9.79,-3.89,-2.35,8.70,9.82
-6.72,4.16,5.71,9.75,-3.88,-2.37,8.71,9.83
-6.73,4.13,5.73,9.76,-3.88,-2.39,8.72,9.84
-6.75,4.19,5.74,9.80,-3.87,-2.40,8.75,9.86
-6.77,4.23,5.74,9.83,-3.83,-2.40,8.77,9.86
-6.75,4.30,5.73,9.84,-3.87,-2.40,8.76,9.88
-6.75,4.27,5.72,9.83,-3.84,-2.40,8.81,9.91
-6.77,4.25,5.74,9.84,-3.87,-2.39,8.77,9.88
-6.84,4.24,5.72,9.87,-3.90,-2.35,8.69,9.81
-6.85,4.21,5.68,9.84,-3.86,-2.34,8.64,9.75
-6.71,4.13,5.68,9.71,-3.87,-2.34,8.63,9.75
-6.68,4.11,5.72,9.71,-3.87,-2.37,8.68,9.79
-6.71,4.13,5.75,9.75,-3.87,-2.39,8.73,9.84
-6.78,4.25,5.76,9.86,-3.86,-2.44,8.77,9.89
-6.78,4.32,5.77,9.90,-3.86,-2.47,8.79,9.91
-6.75,4.27,5.79,9.87,-3.82,-2.48,8.84,9.95
-6.72,4.24,5.76,9.82,-3.87,-2.45,8.77,9.89
-6.80,4.24,5.72,9.85,-3.88,-2.32,8.69,9.80
-6.78,4.22,5.71,9.81,-3.84,-2.34,8.72,9.81
-6.69,4.18,5.70,9.73,-3.82,-2.38,8.72,9.81
-6.73,4.23,5.71,9.79,-3.84,-2.39,8.76,9.86
-6.81,4.31,5.69,9.87,-3.84,-2.32,8.73,9.81
-6.82,4.32,5.71,9.89,-3.86,-2.37,8.75,9.86
-6.78,4.23,5.72,9.83,-3.87,-2.41,8.76,9.88
-6.75,4.11,5.77,9.78,-3.89,-2.39,8.72,9.85
-6.79,4.16,5.73,9.81,-3.92,-2.34,8.71,9.84
-6.81,4.20,5.72,9.84,-3.86,-2.40,8.62,9.74
-6.69,4.18,5.70,9.73,-3.94,-2.41,8.72,9.87
-6.61,4.14,5.72,9.67,-3.84,-2.43,8.70,9.82
-6.76,4.18,5.75,9.81,-3.86,-2.41,8.74,9.86
-6.82,4.26,5.77,9.90,-3.88,-2.40,8.77,9.88
-6.79,4.30,5.77,9.89,-3.91,-2.46,8.78,9.92
-6.74,4.24,5.76,9.83,-3.89,-2.48,8.82,9.95
-6.78,4.24,5.78,9.86,-3.84,-2.39,8.81,9.90
-6.86,4.25,5.67,9.87,-3.84,-2.31,8.74,9.82
-6.81,4.26,5.67,9.83,-3.83,-2.28,8.66,9.74
-6.69,4.18,5.66,9.71,-3.84,-2.32,8.66,9.75
-6.66,4.09,5.67,9.66,-3.86,-2.39,8.72,9.83
-6.74,4.10,5.78,9.78,-3.87,-2.40,8.75,9.87
-6.86,4.25,5.76,9.91,-3.88,-2.40,8.76,9.88
-6.82,4.35,5.73,9.91,-3.88,-2.44,8.75,9.87
-6.68,4.27,5.75,9.79,-3.86,-2.46,8.76,9.88
-6.67,4.14,5.76,9.73,-3.86,-2.44,8.77,9.89
-6.73,4.16,5.81,9.82,-3.85,-2.41,8.82,9.92
-6.80,4.26,5.81,9.90,-3.86,-2.45,8.76,9.88
-6.79,4.36,5.72,9.90,-3.86,-2.39,8.74,9.85
-6.77,4.33,5.65,9.82,-3.85,-2.32,8.64,9.74
-6.76,4.18,5.64,9.74,-3.90,-2.26,8.61,9.72
-6.75,4.04,5.69,9.71,-3.87,-2.26,8.63,9.73
-6.75,4.05,5.71,9.73,-3.89,-2.34,8.72,9.83
-6.76,4.19,5.71,9.79,-3.88,-2.40,8.74,9.86
-6.78,4.32,5.76,9.89,-3.87,-2.45,8.76,9.89
-6.79,4.35,5.74,9.89,-3.87,-2.42,8.83,9.94
-6.80,4.28,5.77,9.89,-3.88,-2.43,8.82,9.94
-6.77,4.19,5.80,9.85,-3.88,-2.42,8.79,9.91
-6.78,4.18,5.78,9.84,-3.85,-2.43,8.79,9.90
-6.81,4.19,5.72,9.83,-3.91,-2.38,8.71,9.84
-6.78,4.22,5.65,9.78,-3.85,-2.32,8.67,9.77
-6.72,4.15,5.66,9.71,-3.85,-2.32,8.64,9.73
-6.72,4.12,5.70,9.73,-3.88,-2.30,8.68,9.78
-6.74,4.15,5.71,9.76,-3.85,-2.36,8.76,9.85
-6.78,4.24,5.72,9.83,-3.85,-2.35,8.77,9.87
-6.82,4.29,5.72,9.88,-3.85,-2.40,8.77,9.88
-6.75,4.28,5.75,9.85,-3.85,-2.43,8.78,9.89
-6.72,4.19,5.74,9.78,-3.82,-2.43,8.82,9.91
-6.76,4.18,5.77,9.82,-3.86,-2.41,8.75,9.86
-6.81,4.20,5.74,9.84,-3.89,-2.39,8.67,9.80
-6.79,4.22,5.70,9.82,-3.85,-2.36,8.68,9.78
-6.69,4.14,5.71,9.72,-3.91,-2.35,8.67,9.80
-6.72,4.16,5.71,9.75,-3.89,-2.34,8.68,9.80
-6.78,4.16,5.72,9.80,-3.87,-2.41,8.74,9.86
-6.75,4.22,5.73,9.81,-3.85,-2.41,8.75,9.86
-6.76,4.26,5.74,9.84,-3.87,-2.38,8.79,9.90
-6.74,4.22,5.73,9.80,-3.89,-2.43,8.77,9.90
-6.77,4.20,5.77,9.84,-3.87,-2.43,8.78,9.90
-6.75,4.17,5.76,9.81,-3.87,-2.38,8.77,9.87
-6.80,4.23,5.72,9.85,-3.88,-2.34,8.73,9.84
-6.81,4.25,5.69,9.84,-3.85,-2.32,8.71,9.80
-6.73,4.20,5.71,9.78,-3.87,-2.36,8.73,9.84
-6.75,4.17,5.71,9.77,-3.87,-2.39,8.76,9.87
-6.78,4.20,5.71,9.81,-3.89,-2.34,8.69,9.81
-6.83,4.23,5.69,9.84,-3.88,-2.34,8.66,9.77
-6.74,4.22,5.72,9.79,-3.88,-2.38,8.71,9.83
-6.68,4.16,5.73,9.74,-3.89,-2.43,8.71,9.85
-6.73,4.11,5.77,9.77,-3.89,-2.39,8.68,9.81
-6.79,4.14,5.77,9.83,-3.88,-2.39,8.68,9.80
-6.80,4.23,5.75,9.86,-3.87,-2.43,8.70,9.83
-6.70,4.20,5.78,9.80,-3.88,-2.49,8.79,9.92
-6.70,4.19,5.78,9.79,-3.91,-2.45,8.78,9.92
-6.80,4.23,5.76,9.87,-3.86,-2.35,8.76,9.86
-6.85,4.25,5.69,9.86,-3.89,-2.36,8.67,9.79
-6.77,4.19,5.68,9.78,-3.87,-2.34,8.70,9.80
-6.63,4.06,5.68,9.63,-3.85,-2.32,8.67,9.77
-6.73,4.16,5.74,9.78,-3.85,-2.34,8.76,9.86
-6.83,4.33,5.73,9.91,-3.83,-2.42,8.81,9.91
-6.84,4.38,5.72,9.94,-3.87,-2.50,8.87,9.99
-6.77,4.24,5.73,9.83,-3.85,-2.41,8.85,9.95
-6.84,4.25,5.73,9.88,-3.81,-2.36,8.80,9.87
-6.82,4.20,5.74,9.85,-3.84,-2.40,8.78,9.88
-6.80,4.25,5.72,9.85,-3.82,-2.36,8.77,9.85
-6.77,4.33,5.69,9.84,-3.83,-2.34,8.71,9.80
-6.74,4.21,5.66,9.76,-3.90,-2.36,8.65,9.77
-6.73,4.10,5.71,9.73,-3.95,-2.40,8.66,9.81
-6.74,4.03,5.76,9.74,-3.96,-2.43,8.68,9.85
-6.76,4.01,5.71,9.71,-3.91,-2.40,8.65,9.79
-6.76,4.11,5.70,9.75,-3.91,-2.32,8.68,9.80
-6.79,4.25,5.68,9.81,-3.83,-2.38,8.82,9.90
-6.76,4.27,5.67,9.80,-3.87,-2.38,8.81,9.91
-6.83,4.29,5.71,9.88,-3.86,-2.35,8.81,9.90
-6.89,4.32,5.69,9.93,-3.81,-2.30,8.81,9.87
-6.86,4.32,5.66,9.88,-3.85,-2.32,8.76,9.84
-6.78,4.20,5.62,9.76,-3.89,-2.30,8.65,9.76
-6.76,4.10,5.62,9.70,-3.87,-2.29,8.65,9.75
-6.79,4.10,5.64,9.74,-3.85,-2.29,8.66,9.75
-6.77,4.10,5.68,9.74,-3.85,-2.34,8.70,9.79
-6.74,4.15,5.70,9.76,-3.87,-2.45,8.79,9.92
-6.74,4.19,5.75,9.80,-3.92,-2.48,8.77,9.92
-6.76,4.21,5.76,9.83,-3.86,-2.47,8.77,9.90
-6.83,4.24,5.73,9.87,-3.85,-2.41,8.73,9.84
-6.84,4.30,5.68,9.88,-3.87,-2.35,8.75,9.85
-6.75,4.28,5.71,9.82,-3.77,-2.45,8.86,9.94
-6.73,4.21,5.68,9.76,-3.83,-2.42,8.81,9.90
-6.83,4.23,5.63,9.81,-3.81,-2.31,8.79,9.85
-6.91,4.32,5.59,9.88,-3.86,-2.18,8.67,9.74
-6.84,4.27,5.61,9.82,-3.88,-2.24,8.67,9.76
-6.72,4.07,5.64,9.67,-3.81,-2.38,8.82,9.90
-6.77,4.00,5.69,9.71,-3.88,-2.43,8.80,9.92
-6.89,4.13,5.69,9.84,-3.88,-2.35,8.77,9.87
-6.93,4.30,5.64,9.92,-3.85,-2.30,8.79,9.86
-6.84,4.35,5.67,9.89,-3.84,-2.38,8.83,9.92
-6.78,4.21,5.68,9.80,-3.82,-2.51,8.80,9.92
-6.80,4.15,5.69,9.79,-3.85,-2.31,8.79,9.87
-6.87,4.16,5.68,9.84,-3.85,-2.29,8.73,9.82
-6.88,4.23,5.60,9.82,-3.82,-2.33,8.63,9.73
-6.83,4.26,5.60,9.80,-3.86,-2.28,8.71,9.79
-6.78,4.25,5.61,9.77,-3.83,-2.31,8.75,9.82
-6.84,4.22,5.61,9.80,-3.82,-2.32,8.79,9.87
-6.89,4.26,5.67,9.89,-3.87,-2.30,8.78,9.87
-6.91,4.30,5.64,9.90,-3.86,-2.32,8.76,9.85
-6.87,4.27,5.64,9.86,-3.83,-2.31,8.76,9.84
-6.83,4.21,5.64,9.81,-3.87,-2.32,8.72,9.82
-6.84,4.23,5.63,9.81,-3.86,-2.31,8.75,9.84
-6.78,4.21,5.64,9.77,-3.84,-2.35,8.75,9.84
-6.83,4.23,5.63,9.81,-3.85,-2.36,8.77,9.86
-6.83,4.26,5.60,9.80,-3.84,-2.28,8.74,9.82
-6.85,4.23,5.61,9.81,-3.84,-2.28,8.74,9.82
-6.81,4.22,5.60,9.77,-3.85,-2.31,8.71,9.80
-6.81,4.20,5.62,9.78,-3.85,-2.33,8.74,9.83
-6.80,4.20,5.64,9.79,-3.86,-2.34,8.74,9.83
-6.82,4.21,5.63,9.80,-3.86,-2.33,8.75,9.84
-6.82,4.24,5.66,9.83,-3.86,-2.36,8.82,9.92
-6.84,4.26,5.66,9.85,-3.87,-2.37,8.77,9.88
-6.87,4.25,5.63,9.85,-3.88,-2.30,8.80,9.89
-6.92,4.28,5.62,9.88,-3.87,-2.27,8.75,9.84
-6.84,4.20,5.59,9.78,-3.83,-2.29,8.74,9.81
-6.83,4.18,5.60,9.77,-3.87,-2.33,8.72,9.82
-6.85,4.18,5.62,9.80,-3.90,-2.27,8.73,9.82
-6.82,4.19,5.61,9.78,-3.84,-2.31,8.72,9.80
-6.80,4.18,5.61,9.76,-3.87,-2.33,8.75,9.85
-6.82,4.16,5.63,9.77,-3.87,-2.35,8.78,9.88
-6.82,4.22,5.67,9.82,-3.86,-2.37,8.81,9.91
-6.86,4.24,5.66,9.85,-3.88,-2.36,8.79,9.90
-6.88,4.27,5.60,9.85,-3.87,-2.33,8.76,9.86
-6.87,4.26,5.61,9.84,-3.84,-2.30,8.76,9.83
-6.77,4.23,5.59,9.75,-3.85,-2.24,8.71,9.78
-6.80,4.17,5.59,9.74,-3.83,-2.27,8.73,9.80
-6.77,4.19,5.63,9.75,-3.81,-2.31,8.78,9.84
-6.84,4.24,5.64,9.82,-3.87,-2.34,8.83,9.92
-6.91,4.34,5.64,9.92,-3.89,-2.33,8.82,9.92
-6.88,4.35,5.62,9.89,-3.86,-2.32,8.79,9.88
-6.85,4.24,5.60,9.81,-3.86,-2.31,8.78,9.86
-6.83,4.18,5.60,9.77,-3.85,-2.29,8.73,9.81
-6.84,4.18,5.60,9.78,-3.86,-2.26,8.73,9.81
-6.82,4.22,5.59,9.77,-3.80,-2.29,8.72,9.79
-6.83,4.27,5.62,9.82,-3.82,-2.33,8.79,9.86
-6.84,4.27,5.63,9.83,-3.86,-2.42,8.80,9.91
-6.83,4.24,5.65,9.83,-3.90,-2.36,8.77,9.88
-6.87,4.22,5.64,9.84,-3.87,-2.30,8.73,9.82
-6.82,4.18,5.64,9.79,-3.87,-2.31,8.71,9.80
-6.77,4.18,5.62,9.74,-3.87,-2.34,8.80,9.90
-6.81,4.20,5.64,9.79,-3.85,-2.32,8.76,9.84
-6.87,4.26,5.60,9.83,-3.89,-2.23,8.70,9.79
-6.92,4.27,5.58,9.86,-3.89,-2.22,8.71,9.80
-6.85,4.15,5.57,9.75,-3.91,-2.26,8.73,9.83
-6.78,4.06,5.62,9.70,-3.91,-2.32,8.70,9.81
-6.78,4.15,5.65,9.76,-3.91,-2.33,8.76,9.87
-6.87,4.26,5.61,9.84,-3.85,-2.31,8.80,9.88
-6.93,4.38,5.58,9.92,-3.82,-2.26,8.80,9.85
-6.86,4.31,5.60,9.85,-3.82,-2.31,8.79,9.86
-6.81,4.22,5.58,9.76,-3.89,-2.31,8.76,9.86
-6.84,4.15,5.63,9.78,-3.83,-2.31,8.69,9.77
-6.81,4.14,5.62,9.75,-3.92,-2.28,8.72,9.83
-6.82,4.22,5.58,9.78,-3.87,-2.27,8.70,9.79
-6.80,4.27,5.58,9.78,-3.87,-2.29,8.69,9.78
-6.75,4.19,5.60,9.72,-3.84,-2.30,8.70,9.78
-6.78,4.12,5.64,9.74,-3.89,-2.35,8.75,9.86
-6.83,4.15,5.67,9.80,-3.89,-2.37,8.81,9.91
-6.89,4.21,5.68,9.87,-3.87,-2.34,8.81,9.91
-6.89,4.36,5.64,9.91,-3.86,-2.33,8.81,9.90
-6.83,4.35,5.59,9.84,-3.86,-2.30,8.79,9.88
-6.84,4.28,5.59,9.81,-3.84,-2.28,8.75,9.82
-6.87,4.18,5.58,9.79,-3.87,-2.20,8.68,9.75
-6.85,4.16,5.58,9.77,-3.87,-2.21,8.66,9.74
-6.82,4.16,5.60,9.75,-3.86,-2.25,8.69,9.77
-6.77,4.19,5.63,9.76,-3.88,-2.36,8.79,9.90
-6.83,4.24,5.68,9.85,-3.90,-2.38,8.84,9.95
-6.89,4.32,5.69,9.92,-3.90,-2.36,8.86,9.97
-6.89,4.32,5.67,9.91,-3.89,-2.38,8.82,9.93
-6.84,4.26,5.64,9.83,-3.91,-2.32,8.79,9.90
-6.83,4.21,5.59,9.78,-3.91,-2.25,8.71,9.81
-6.83,4.15,5.56,9.73,-3.89,-2.19,8.67,9.75
-6.85,4.12,5.56,9.74,-3.83,-2.19,8.67,9.73
-6.86,4.23,5.58,9.80,-3.87,-2.23,8.72,9.80
-6.83,4.26,5.58,9.80,-3.89,-2.27,8.77,9.86
-6.84,4.29,5.62,9.83,-3.90,-2.34,8.78,9.89
-6.83,4.27,5.67,9.85,-3.90,-2.37,8.83,9.94
-6.84,4.26,5.65,9.84,-3.90,-2.40,8.79,9.92
-6.84,4.23,5.64,9.82,-3.86,-2.31,8.72,9.81
-6.81,4.21,5.62,9.79,-3.86,-2.30,8.73,9.81
-6.81,4.19,5.65,9.79,-3.90,-2.29,8.72,9.82
-6.80,4.18,5.61,9.75,-3.88,-2.28,8.70,9.79
-6.82,4.19,5.57,9.75,-3.89,-2.23,8.76,9.84
-6.83,4.21,5.60,9.78,-3.85,-2.29,8.70,9.78
-6.77,4.21,5.62,9.76,-3.87,-2.37,8.77,9.88
-6.81,4.24,5.65,9.81,-3.88,-2.33,8.82,9.92
-6.89,4.31,5.67,9.91,-3.85,-2.33,8.82,9.91
-6.91,4.32,5.61,9.89,-3.89,-2.32,8.79,9.88
-6.81,4.23,5.62,9.80,-3.85,-2.35,8.77,9.86
-6.79,4.16,5.62,9.75,-3.90,-2.29,8.72,9.83
-6.83,4.16,5.63,9.78,-3.82,-2.22,8.77,9.82
-6.86,4.21,5.55,9.78,-3.94,-2.23,8.67,9.78
-6.83,4.19,5.58,9.77,-3.90,-2.26,8.72,9.82
-6.77,4.18,5.60,9.73,-3.92,-2.29,8.68,9.80
-6.78,4.18,5.63,9.76,-3.88,-2.31,8.76,9.86
-6.86,4.23,5.67,9.85,-3.87,-2.33,8.75,9.85
-6.90,4.30,5.67,9.91,-3.87,-2.37,8.84,9.94
-6.84,4.30,5.59,9.82,-3.88,-2.33,8.83,9.93
-6.86,4.28,5.62,9.84,-3.89,-2.23,8.79,9.86
-6.89,4.25,5.58,9.83,-3.89,-2.17,8.73,9.80
-6.87,4.22,5.55,9.79,-3.85,-2.20,8.69,9.75
-6.83,4.19,5.51,9.73,-3.85,-2.24,8.66,9.73
-6.78,4.19,5.56,9.72,-3.86,-2.23,8.68,9.76
-6.79,4.18,5.63,9.76,-3.84,-2.28,8.75,9.82
-6.83,4.25,5.68,9.85,-3.87,-2.41,8.86,9.97
-6.88,4.33,5.68,9.92,-3.94,-2.43,8.85,9.99
-6.92,4.37,5.66,9.95,-3.84,-2.36,8.85,9.94
-6.87,4.27,5.65,9.86,-3.86,-2.31,8.77,9.85
-6.79,4.17,5.62,9.75,-3.88,-2.27,8.73,9.82
-6.78,4.15,5.58,9.70,-3.89,-2.23,8.70,9.79
-6.84,4.17,5.56,9.75,-3.86,-2.17,8.69,9.75
-6.87,4.20,5.58,9.80,-3.85,-2.23,8.73,9.80
-6.79,4.25,5.61,9.78,-3.86,-2.29,8.78,9.86
-6.83,4.29,5.62,9.83,-3.89,-2.33,8.79,9.89
-6.88,4.30,5.66,9.90,-3.86,-2.31,8.79,9.87
-6.93,4.31,5.66,9.93,-3.87,-2.32,8.77,9.87
-6.84,4.23,5.61,9.80,-3.88,-2.31,8.76,9.85
-6.78,4.17,5.61,9.74,-3.86,-2.31,8.73,9.82
-6.79,4.12,5.62,9.73,-3.89,-2.31,8.68,9.79
-6.85,4.19,5.64,9.81,-3.91,-2.34,8.71,9.82
-6.80,4.17,5.63,9.77,-3.93,-2.32,8.75,9.86
-6.86,4.24,5.66,9.85,-3.90,-2.37,8.78,9.89
-6.84,4.29,5.65,9.85,-3.87,-2.35,8.81,9.90
-6.89,4.32,5.60,9.87,-3.88,-2.28,8.78,9.87
-6.91,4.30,5.58,9.87,-3.89,-2.25,8.74,9.83
-6.87,4.26,5.55,9.81,-3.87,-2.20,8.71,9.78
-6.83,4.14,5.54,9.72,-3.84,-2.17,8.70,9.75
-6.84,4.16,5.58,9.76,-3.86,-2.23,8.70,9.78
-6.86,4.22,5.62,9.82,-3.88,-2.32,8.80,9.89
-6.84,4.31,5.64,9.85,-3.91,-2.37,8.82,9.93
-6.88,4.37,5.65,9.92,-3.91,-2.34,8.80,9.91
-6.88,4.32,5.65,9.90,-3.89,-2.29,8.73,9.83
-6.81,4.21,5.65,9.80,-3.88,-2.35,8.70,9.81
-6.76,4.10,5.65,9.72,-3.87,-2.33,8.73,9.82
-6.75,4.08,5.66,9.71,-3.88,-2.31,8.70,9.81
-6.81,4.18,5.65,9.78,-3.85,-2.32,8.76,9.85
-6.88,4.30,5.62,9.87,-3.87,-2.30,8.75,9.84
-6.84,4.30,5.59,9.83,-3.86,-2.31,8.79,9.88
-6.84,4.25,5.59,9.81,-3.87,-2.31,8.78,9.87
-6.83,4.21,5.63,9.80,-3.88,-2.27,8.79,9.88
-6.89,4.22,5.58,9.82,-3.87,-2.21,8.77,9.84
-6.89,4.30,5.56,9.84,-3.88,-2.21,8.72,9.80
-6.81,4.27,5.55,9.77,-3.85,-2.26,8.76,9.83
-6.77,4.25,5.60,9.76,-3.85,-2.28,8.74,9.82
-6.82,4.21,5.64,9.80,-3.89,-2.30,8.78,9.88
-6.85,4.29,5.63,9.85,-3.89,-2.33,8.74,9.85
-6.87,4.30,5.60,9.85,-3.89,-2.32,8.75,9.85
-6.82,4.24,5.63,9.81,-3.91,-2.36,8.76,9.88
-6.76,4.18,5.65,9.75,-3.91,-2.36,8.78,9.90
-6.84,4.19,5.64,9.80,-3.92,-2.27,8.72,9.82
-6.87,4.26,5.59,9.83,-3.90,-2.21,8.70,9.78
-6.82,4.21,5.57,9.76,-3.91,-2.23,8.70,9.79
-6.78,4.18,5.57,9.72,-3.90,-2.27,8.74,9.83
-6.83,4.16,5.61,9.77,-3.89,-2.26,8.73,9.82
-6.87,4.20,5.66,9.85,-3.87,-2.26,8.78,9.86
-6.86,4.34,5.62,9.87,-3.89,-2.34,8.78,9.88
-6.82,4.37,5.58,9.84,-3.90,-2.30,8.78,9.88
-6.81,4.29,5.63,9.82,-3.85,-2.32,8.79,9.87
-6.81,4.21,5.63,9.79,-3.88,-2.27,8.81,9.89
-6.84,4.22,5.60,9.80,-3.85,-2.28,8.77,9.85
-6.87,4.28,5.61,9.85,-3.90,-2.25,8.73,9.82
-6.82,4.25,5.57,9.77,-3.89,-2.24,8.73,9.82
-6.80,4.23,5.58,9.76,-3.91,-2.31,8.77,9.88
-6.83,4.21,5.64,9.81,-3.89,-2.32,8.77,9.87
-6.89,4.24,5.63,9.85,-3.90,-2.29,8.77,9.87
-6.88,4.27,5.58,9.83,-3.92,-2.26,8.72,9.83
-6.84,4.24,5.58,9.80,-3.87,-2.21,8.68,9.75
-6.77,4.15,5.55,9.69,-3.86,-2.24,8.67,9.76
-6.74,4.15,5.57,9.68,-3.87,-2.24,8.72,9.80
-6.77,4.24,5.66,9.79,-3.88,-2.29,8.79,9.87
-6.82,4.30,5.64,9.84,-3.87,-2.36,8.80,9.90
-6.84,4.37,5.63,9.87,-3.88,-2.32,8.81,9.90
-6.89,4.37,5.63,9.91,-3.89,-2.33,8.76,9.86
-6.85,4.25,5.63,9.83,-3.93,-2.34,8.79,9.91
-6.81,4.14,5.66,9.78,-3.89,-2.33,8.75,9.86
-6.83,4.20,5.61,9.79,-3.90,-2.26,8.72,9.82
-6.86,4.27,5.55,9.80,-3.88,-2.20,8.68,9.75
-6.84,4.26,5.54,9.78,-3.91,-2.24,8.71,9.81
-6.78,4.20,5.56,9.73,-3.92,-2.28,8.75,9.86
-6.87,4.19,5.59,9.80,-3.89,-2.26,8.74,9.83
-6.92,4.24,5.61,9.86,-3.89,-2.26,8.77,9.86
-6.87,4.30,5.61,9.86,-3.87,-2.29,8.79,9.87
-6.81,4.34,5.60,9.83,-3.88,-2.32,8.81,9.90
-6.81,4.31,5.61,9.82,-3.89,-2.33,8.76,9.87
-6.81,4.18,5.65,9.79,-3.87,-2.34,8.75,9.85
-6.81,4.20,5.64,9.79,-3.88,-2.33,8.73,9.84
-6.85,4.23,5.59,9.80,-3.89,-2.25,8.70,9.80
-6.83,4.25,5.57,9.78,-3.90,-2.26,8.71,9.81
-6.82,4.22,5.60,9.78,-3.87,-2.26,8.76,9.84
-6.86,4.21,5.60,9.81,-3.91,-2.32,8.69,9.81
-6.83,4.24,5.61,9.80,-3.93,-2.27,8.90,9.99
-6.90,4.32,5.62,9.90,-3.81,-2.30,8.81,9.87
-6.90,4.32,5.62,9.89,-3.86,-2.29,8.76,9.84
-6.80,4.30,5.62,9.81,-3.89,-2.31,8.79,9.89
-6.84,4.23,5.60,9.80,-3.91,-2.30,8.79,9.89
-6.83,4.23,5.58,9.78,-3.83,-2.25,8.72,9.79
-6.86,4.21,5.57,9.79,-3.83,-2.22,8.74,9.80
-6.79,4.23,5.56,9.74,-3.89,-2.29,8.77,9.86
-6.77,4.22,5.61,9.76,-3.90,-2.34,8.71,9.82
-6.85,4.23,5.63,9.82,-3.90,-2.32,8.75,9.85
-6.84,4.23,5.65,9.83,-3.92,-2.34,8.79,9.91
-6.81,4.21,5.64,9.80,-3.89,-2.37,8.81,9.92
-6.84,4.23,5.67,9.84,-3.88,-2.36,8.79,9.89
-6.82,4.30,5.62,9.83,-3.89,-2.32,8.77,9.87
-6.84,4.27,5.59,9.82,-3.89,-2.28,8.73,9.83
-6.83,4.20,5.58,9.77,-3.87,-2.27,8.70,9.79
-6.81,4.17,5.62,9.77,-3.87,-2.25,8.74,9.82
-6.85,4.14,5.61,9.77,-3.90,-2.25,8.70,9.79
-6.89,4.28,5.59,9.85,-3.89,-2.25,8.73,9.82
-6.89,4.31,5.56,9.84,-3.90,-2.30,8.73,9.83
-6.83,4.22,5.58,9.78,-3.91,-2.28,8.75,9.86
-6.83,4.20,5.63,9.80,-3.87,-2.28,8.79,9.87
-6.90,4.25,5.63,9.87,-3.87,-2.23,8.80,9.87
-6.91,4.32,5.59,9.88,-3.87,-2.27,8.72,9.81
-6.78,4.26,5.59,9.77,-3.87,-2.31,8.74,9.83
-6.70,4.15,5.62,9.68,-3.89,-2.39,8.74,9.86
-6.78,4.12,5.65,9.73,-3.91,-2.31,8.76,9.87
-6.87,4.18,5.67,9.84,-3.88,-2.25,8.74,9.83
-6.86,4.31,5.60,9.85,-3.86,-2.32,8.78,9.86
-6.81,4.29,5.58,9.79,-3.89,-2.34,8.82,9.92
-6.84,4.22,5.60,9.80,-3.88,-2.24,8.77,9.85
-6.84,4.16,5.60,9.77,-3.86,-2.22,8.72,9.79
-6.84,4.24,5.60,9.80,-3.88,-2.26,8.72,9.81
-6.83,4.26,5.58,9.79,-3.89,-2.24,8.72,9.81
-6.82,4.27,5.61,9.81,-3.88,-2.29,8.79,9.88
-6.80,4.27,5.62,9.80,-3.88,-2.31,8.77,9.86
-6.86,4.27,5.67,9.87,-3.86,-2.33,8.78,9.87
-6.85,4.25,5.64,9.84,-3.89,-2.35,8.80,9.91
-6.83,4.27,5.61,9.82,-3.87,-2.29,8.78,9.86
-6.86,4.28,5.58,9.82,-3.89,-2.20,8.74,9.81
-6.91,4.30,5.55,9.85,-3.86,-2.16,8.73,9.78
-6.92,4.28,5.50,9.82,-3.84,-2.17,8.71,9.76
-6.76,4.20,5.60,9.73,-3.85,-2.28,8.70,9.78
-6.74,4.03,5.50,9.59,-3.90,-2.27,8.75,9.85
-6.85,4.17,5.61,9.79,-3.89,-2.19,8.66,9.74
-6.91,4.29,5.68,9.92,-3.86,-2.26,8.67,9.75
-6.77,4.30,5.67,9.82,-3.95,-2.53,8.72,9.90
