Ax,Ay,Az,Amag,Ax2,Ay2,Az2,Amag2
-0.04,-9.11,3.69,9.83,-4.86,-8.45,-1.52,9.87
-0.02,-9.13,3.70,9.85,-4.85,-8.46,-1.52,9.87
-0.03,-9.14,3.68,9.85,-4.87,-8.45,-1.47,9.86
-0.04,-9.15,3.70,9.87,-4.89,-8.49,-1.52,9.92
-0.02,-9.15,3.70,9.87,-4.88,-8.46,-1.47,9.87
-0.05,-9.11,3.70,9.84,-4.90,-8.46,-1.48,9.88
-0.04,-9.13,3.72,9.85,-4.90,-8.44,-1.52,9.87
-0.03,-9.13,3.70,9.85,-4.86,-8.46,-1.49,9.87
-0.04,-9.13,3.71,9.86,-4.89,-8.45,-1.49,9.87
-0.03,-9.15,3.71,9.88,-4.88,-8.48,-1.50,9.89
-0.06,-9.12,3.71,9.85,-4.85,-8.46,-1.46,9.86
-0.03,-9.12,3.72,9.85,-4.84,-8.48,-1.51,9.88
-0.03,-9.13,3.71,9.85,-4.84,-8.45,-1.50,9.86
-0.02,-9.12,3.72,9.84,-4.86,-8.46,-1.50,9.87
-0.03,-9.13,3.73,9.86,-4.86,-8.50,-1.48,9.90
-0.03,-9.11,3.72,9.84,-4.87,-8.46,-1.49,9.87
-0.03,-9.11,3.70,9.83,-4.85,-8.47,-1.49,9.88
0.00,-9.12,3.73,9.85,-4.85,-8.45,-1.49,9.86
-0.02,-9.11,3.73,9.85,-4.84,-8.43,-1.49,9.83
-0.07,-9.10,3.70,9.82,-4.91,-8.46,-1.50,9.89
-0.04,-9.14,3.73,9.87,-4.87,-8.44,-1.49,9.86
-0.06,-9.12,3.72,9.84,-4.87,-8.47,-1.49,9.88
-0.03,-9.12,3.71,9.85,-4.89,-8.47,-1.47,9.89
-0.04,-9.12,3.70,9.84,-4.87,-8.46,-1.48,9.88
-0.03,-9.12,3.70,9.84,-4.90,-8.41,-1.51,9.85
-0.04,-9.14,3.70,9.86,-4.91,-8.42,-1.49,9.86
-0.04,-9.15,3.70,9.87,-4.89,-8.44,-1.47,9.86
-0.04,-9.13,3.69,9.85,-4.89,-8.43,-1.49,9.86
-0.04,-9.11,3.69,9.83,-4.87,-8.48,-1.52,9.90
-0.03,-9.15,3.70,9.87,-4.83,-8.44,-1.50,9.84
-0.03,-9.13,3.70,9.85,-4.87,-8.44,-1.50,9.86
-0.02,-9.14,3.72,9.87,-4.85,-8.46,-1.48,9.86
-0.03,-9.15,3.69,9.86,-4.88,-8.47,-1.50,9.89
-0.03,-9.12,3.71,9.85,-4.88,-8.47,-1.47,9.89
-0.03,-9.11,3.71,9.84,-4.88,-8.46,-1.48,9.87
-0.04,-9.13,3.71,9.86,-4.88,-8.46,-1.47,9.88
-0.04,-9.12,3.70,9.84,-4.86,-8.45,-1.49,9.87
-0.03,-9.14,3.72,9.87,-4.85,-8.46,-1.44,9.86
-0.05,-9.13,3.73,9.86,-4.87,-8.48,-1.45,9.89
-0.05,-9.09,3.73,9.83,-4.85,-8.44,-1.48,9.85
-0.03,-9.13,3.73,9.86,-4.84,-8.45,-1.51,9.86
-0.02,-9.11,3.71,9.84,-4.87,-8.48,-1.48,9.89
-0.03,-9.11,3.73,9.85,-4.89,-8.44,-1.48,9.87
-0.04,-9.13,3.72,9.86,-4.90,-8.44,-1.47,9.87
-0.02,-9.13,3.71,9.85,-4.89,-8.43,-1.51,9.86
-0.03,-9.13,3.71,9.85,-4.89,-8.45,-1.45,9.87
-0.02,-9.13,3.71,9.86,-4.84,-8.46,-1.50,9.86
-0.02,-9.13,3.71,9.86,-4.87,-8.44,-1.47,9.85
-0.02,-9.13,3.70,9.85,-4.89,-8.42,-1.51,9.86
-0.00,-9.15,3.70,9.87,-4.88,-8.46,-1.49,9.88
-0.05,-9.12,3.73,9.85,-4.91,-8.45,-1.51,9.89
-0.05,-9.12,3.71,9.85,-4.84,-8.44,-1.49,9.84
-0.04,-9.13,3.70,9.86,-4.88,-8.42,-1.50,9.85
-0.04,-9.12,3.71,9.84,-4.90,-8.46,-1.53,9.89
-0.05,-9.13,3.72,9.86,-4.89,-8.44,-1.47,9.86
-0.05,-9.13,3.70,9.85,-4.89,-8.46,-1.48,9.89
-0.05,-9.12,3.72,9.84,-4.88,-8.44,-1.49,9.87
-0.06,-9.12,3.73,9.85,-4.89,-8.45,-1.49,9.87
-0.04,-9.13,3.71,9.86,-4.89,-8.45,-1.48,9.88
0.00,-9.13,3.70,9.85,-4.88,-8.42,-1.52,9.85
-0.03,-9.13,3.70,9.85,-4.87,-8.45,-1.49,9.86
-0.01,-9.11,3.72,9.84,-4.88,-8.47,-1.49,9.89
-0.02,-9.12,3.72,9.85,-4.88,-8.46,-1.49,9.88
-0.02,-9.12,3.72,9.85,-4.90,-8.46,-1.48,9.89
-0.02,-9.11,3.74,9.85,-4.85,-8.46,-1.47,9.87
-0.03,-9.16,3.72,9.89,-4.87,-8.45,-1.51,9.87
-0.05,-9.13,3.72,9.86,-4.88,-8.47,-1.47,9.88
-0.04,-9.13,3.71,9.85,-4.88,-8.47,-1.45,9.88
-0.02,-9.12,3.72,9.85,-4.87,-8.46,-1.50,9.87
-0.04,-9.15,3.70,9.87,-4.88,-8.44,-1.49,9.86
-0.01,-9.12,3.72,9.85,-4.88,-8.44,-1.51,9.86
-0.05,-9.15,3.71,9.87,-4.88,-8.44,-1.55,9.87
-0.02,-9.12,3.68,9.84,-4.92,-8.45,-1.49,9.89
-0.03,-9.11,3.71,9.83,-4.89,-8.46,-1.50,9.88
-0.06,-9.12,3.72,9.85,-4.89,-8.44,-1.50,9.87
-0.04,-9.12,3.69,9.84,-4.91,-8.43,-1.49,9.87
-0.05,-9.13,3.71,9.86,-4.89,-8.43,-1.46,9.85
-0.04,-9.14,3.70,9.86,-4.90,-8.43,-1.50,9.86
-0.02,-9.11,3.71,9.84,-4.88,-8.42,-1.50,9.85
-0.03,-9.14,3.71,9.86,-4.89,-8.43,-1.47,9.86
-0.03,-9.12,3.70,9.85,-4.91,-8.46,-1.50,9.89
-0.05,-9.11,3.72,9.85,-4.90,-8.43,-1.48,9.86
-0.02,-9.14,3.72,9.86,-4.90,-8.44,-1.53,9.88
-0.02,-9.14,3.73,9.88,-4.90,-8.43,-1.52,9.87
-0.05,-9.14,3.74,9.88,-4.90,-8.42,-1.49,9.86
-0.03,-9.14,3.71,9.86,-4.89,-8.45,-1.45,9.87
-0.02,-9.13,3.73,9.86,-4.87,-8.45,-1.48,9.87
-0.03,-9.11,3.74,9.84,-4.87,-8.45,-1.48,9.87
-0.01,-9.14,3.71,9.86,-4.88,-8.42,-1.48,9.85
-0.04,-9.15,3.73,9.88,-4.88,-8.45,-1.49,9.87
-0.03,-9.10,3.74,9.84,-4.89,-8.46,-1.47,9.88
-0.04,-9.10,3.73,9.83,-4.88,-8.47,-1.48,9.88
-0.04,-9.10,3.74,9.84,-4.88,-8.45,-1.50,9.87
-0.04,-9.12,3.72,9.85,-4.92,-8.46,-1.48,9.90
-0.03,-9.15,3.69,9.86,-4.88,-8.43,-1.48,9.86
-0.02,-9.13,3.72,9.86,-4.91,-8.43,-1.48,9.87
-0.03,-9.13,3.72,9.86,-4.91,-8.43,-1.49,9.87
-0.02,-9.10,3.70,9.82,-4.92,-8.42,-1.49,9.86
-0.04,-9.14,3.71,9.87,-4.88,-8.41,-1.54,9.84
-0.03,-9.11,3.72,9.84,-4.87,-8.43,-1.48,9.85
-0.05,-9.14,3.70,9.86,-4.90,-8.42,-1.51,9.86
-0.02,-9.12,3.71,9.85,-4.91,-8.43,-1.46,9.87
-0.04,-9.13,3.71,9.86,-4.93,-8.43,-1.53,9.89
-0.03,-9.11,3.67,9.82,-4.90,-8.44,-1.50,9.88
-0.04,-9.12,3.70,9.84,-4.89,-8.43,-1.49,9.86
-0.02,-9.11,3.70,9.84,-4.88,-8.42,-1.48,9.84
-0.02,-9.14,3.71,9.86,-4.88,-8.47,-1.49,9.89
-0.06,-9.15,3.75,9.89,-4.91,-8.46,-1.48,9.89
-0.03,-9.13,3.72,9.86,-4.90,-8.45,-1.48,9.88
-0.03,-9.10,3.72,9.83,-4.89,-8.44,-1.47,9.86
-0.05,-9.13,3.73,9.86,-4.88,-8.44,-1.49,9.86
-0.03,-9.13,3.72,9.86,-4.89,-8.44,-1.46,9.86
-0.05,-9.13,3.71,9.85,-4.89,-8.46,-1.48,9.88
-0.02,-9.13,3.72,9.86,-4.89,-8.44,-1.48,9.87
-0.02,-9.10,3.71,9.83,-4.90,-8.45,-1.48,9.88
-0.03,-9.11,3.71,9.83,-4.90,-8.44,-1.49,9.87
-0.02,-9.13,3.73,9.86,-4.88,-8.47,-1.48,9.88
-0.02,-9.13,3.72,9.86,-4.89,-8.42,-1.49,9.85
-0.06,-9.13,3.73,9.86,-4.87,-8.43,-1.49,9.85
-0.02,-9.13,3.71,9.86,-4.91,-8.41,-1.45,9.84
-0.03,-9.12,3.72,9.85,-4.90,-8.45,-1.45,9.87
-0.05,-9.13,3.73,9.86,-4.91,-8.40,-1.51,9.85
-0.02,-9.13,3.71,9.86,-4.91,-8.44,-1.50,9.88
-0.03,-9.13,3.71,9.86,-4.95,-8.40,-1.48,9.86
-0.02,-9.14,3.71,9.86,-4.94,-8.43,-1.47,9.88
-0.02,-9.13,3.72,9.85,-4.91,-8.45,-1.48,9.88
-0.04,-9.11,3.71,9.83,-4.91,-8.41,-1.50,9.85
-0.02,-9.12,3.71,9.85,-4.92,-8.41,-1.49,9.86
-0.05,-9.14,3.72,9.87,-4.88,-8.41,-1.50,9.84
-0.04,-9.13,3.70,9.86,-4.94,-8.43,-1.45,9.88
-0.00,-9.14,3.71,9.86,-4.91,-8.41,-1.48,9.85
-0.04,-9.13,3.71,9.86,-4.89,-8.44,-1.49,9.86
-0.02,-9.12,3.71,9.84,-4.92,-8.44,-1.49,9.88
-0.05,-9.11,3.71,9.83,-4.89,-8.44,-1.50,9.87
-0.03,-9.10,3.72,9.84,-4.88,-8.44,-1.48,9.86
-0.02,-9.14,3.71,9.86,-4.90,-8.44,-1.48,9.87
-0.00,-9.13,3.72,9.86,-4.91,-8.45,-1.42,9.87
-0.05,-9.12,3.72,9.85,-4.88,-8.43,-1.50,9.86
-0.01,-9.11,3.73,9.85,-4.91,-8.45,-1.48,9.88
-0.01,-9.11,3.73,9.84,-4.91,-8.41,-1.47,9.85
-0.03,-9.12,3.71,9.85,-4.91,-8.42,-1.48,9.86
-0.02,-9.13,3.73,9.86,-4.91,-8.45,-1.45,9.88
-0.03,-9.10,3.74,9.84,-4.90,-8.43,-1.48,9.87
-0.03,-9.09,3.71,9.82,-4.89,-8.45,-1.45,9.87
-0.01,-9.13,3.73,9.87,-4.90,-8.44,-1.49,9.87
-0.02,-9.14,3.70,9.86,-4.91,-8.44,-1.51,9.88
-0.02,-9.14,3.70,9.86,-4.94,-8.38,-1.47,9.84
-0.01,-9.14,3.71,9.86,-4.93,-8.43,-1.54,9.89
-0.04,-9.11,3.71,9.84,-4.94,-8.42,-1.46,9.87
-0.07,-9.13,3.72,9.86,-4.91,-8.44,-1.53,9.88
-0.03,-9.12,3.71,9.85,-4.90,-8.44,-1.52,9.88
-0.06,-9.15,3.71,9.87,-4.91,-8.44,-1.49,9.88
-0.03,-9.12,3.72,9.85,-4.91,-8.44,-1.51,9.87
-0.05,-9.13,3.70,9.86,-4.90,-8.43,-1.50,9.86
-0.02,-9.16,3.72,9.88,-4.94,-8.41,-1.51,9.87
-0.03,-9.12,3.72,9.85,-4.91,-8.45,-1.53,9.89
-0.03,-9.13,3.72,9.86,-4.91,-8.43,-1.49,9.87
-0.04,-9.12,3.74,9.85,-4.91,-8.43,-1.50,9.87
-0.04,-9.11,3.71,9.83,-4.92,-8.45,-1.48,9.89
-0.04,-9.14,3.74,9.88,-4.89,-8.45,-1.49,9.88
-0.03,-9.12,3.72,9.85,-4.88,-8.46,-1.47,9.88
-0.03,-9.12,3.71,9.85,-4.90,-8.46,-1.50,9.89
-0.02,-9.13,3.74,9.87,-4.90,-8.44,-1.46,9.86
-0.03,-9.16,3.74,9.89,-4.88,-8.44,-1.48,9.86
-0.02,-9.14,3.75,9.88,-4.91,-8.43,-1.52,9.87
-0.01,-9.14,3.72,9.87,-4.89,-8.45,-1.49,9.87
-0.02,-9.11,3.73,9.85,-4.89,-8.44,-1.49,9.87
-0.03,-9.12,3.71,9.85,-4.90,-8.45,-1.52,9.89
-0.02,-9.13,3.73,9.86,-4.91,-8.42,-1.48,9.86
-0.02,-9.15,3.72,9.87,-4.91,-8.41,-1.47,9.85
-0.04,-9.13,3.70,9.85,-4.92,-8.42,-1.47,9.86
-0.06,-9.13,3.71,9.86,-4.95,-8.43,-1.49,9.89
-0.05,-9.11,3.69,9.83,-4.94,-8.41,-1.51,9.87
-0.02,-9.14,3.71,9.86,-4.91,-8.45,-1.48,9.88
-0.04,-9.13,3.72,9.86,-4.91,-8.43,-1.50,9.87
-0.05,-9.13,3.72,9.86,-4.92,-8.39,-1.50,9.84
-0.03,-9.14,3.70,9.86,-4.92,-8.42,-1.50,9.87
-0.02,-9.11,3.72,9.84,-4.94,-8.42,-1.50,9.88
-0.04,-9.11,3.70,9.83,-4.93,-8.43,-1.49,9.88
-0.02,-9.13,3.70,9.85,-4.92,-8.43,-1.50,9.87
-0.04,-9.12,3.70,9.84,-4.93,-8.44,-1.46,9.89
-0.02,-9.14,3.71,9.87,-4.92,-8.45,-1.50,9.89
-0.03,-9.13,3.72,9.86,-4.90,-8.44,-1.48,9.87
-0.00,-9.13,3.72,9.86,-4.90,-8.45,-1.47,9.88
-0.01,-9.12,3.73,9.85,-4.93,-8.43,-1.52,9.89
-0.01,-9.12,3.73,9.85,-4.90,-8.45,-1.51,9.88
-0.03,-9.12,3.76,9.86,-4.90,-8.44,-1.49,9.88
-0.05,-9.11,3.71,9.84,-4.89,-8.44,-1.48,9.87
-0.03,-9.13,3.74,9.86,-4.90,-8.42,-1.52,9.86
-0.03,-9.12,3.74,9.86,-4.92,-8.45,-1.47,9.89
-0.03,-9.11,3.75,9.85,-4.92,-8.44,-1.50,9.88
-0.04,-9.13,3.73,9.86,-4.94,-8.41,-1.49,9.87
-0.03,-9.13,3.71,9.85,-4.92,-8.41,-1.50,9.86
0.00,-9.15,3.73,9.88,-4.92,-8.41,-1.49,9.86
-0.02,-9.13,3.71,9.85,-4.93,-8.43,-1.51,9.88
-0.04,-9.12,3.71,9.85,-4.94,-8.43,-1.48,9.88
-0.03,-9.10,3.71,9.83,-4.92,-8.42,-1.50,9.86
-0.05,-9.13,3.71,9.85,-4.95,-8.42,-1.47,9.87
-0.04,-9.14,3.70,9.86,-4.93,-8.37,-1.52,9.83
-0.03,-9.12,3.71,9.85,-4.95,-8.41,-1.47,9.87
-0.01,-9.13,3.73,9.86,-4.90,-8.41,-1.47,9.85
-0.04,-9.13,3.71,9.85,-4.92,-8.42,-1.47,9.86
-0.05,-9.10,3.70,9.82,-4.94,-8.44,-1.49,9.89
-0.03,-9.11,3.71,9.84,-4.92,-8.43,-1.48,9.87
-0.05,-9.11,3.73,9.85,-4.92,-8.43,-1.46,9.87
-0.03,-9.13,3.73,9.86,-4.94,-8.43,-1.47,9.88
-0.03,-9.11,3.72,9.84,-4.93,-8.41,-1.44,9.86
-0.02,-9.11,3.73,9.84,-4.95,-8.41,-1.50,9.88
-0.04,-9.11,3.73,9.84,-4.93,-8.44,-1.48,9.89
-0.04,-9.10,3.73,9.83,-4.93,-8.43,-1.48,9.88
-0.02,-9.12,3.74,9.86,-4.95,-8.40,-1.48,9.86
-0.01,-9.15,3.72,9.87,-4.93,-8.43,-1.47,9.87
-0.06,-9.13,3.72,9.86,-4.95,-8.44,-1.50,9.90
-0.04,-9.11,3.72,9.84,-4.93,-8.41,-1.48,9.86
-0.02,-9.12,3.72,9.85,-4.91,-8.41,-1.50,9.86
-0.02,-9.11,3.72,9.84,-4.94,-8.41,-1.50,9.87
-0.05,-9.14,3.71,9.86,-4.90,-8.41,-1.48,9.85
-0.03,-9.13,3.71,9.85,-4.95,-8.43,-1.47,9.88
-0.03,-9.14,3.71,9.86,-4.93,-8.43,-1.47,9.88
-0.06,-9.13,3.71,9.85,-4.96,-8.44,-1.49,9.90
-0.03,-9.10,3.73,9.83,-4.93,-8.42,-1.52,9.87
-0.03,-9.15,3.71,9.87,-4.94,-8.39,-1.45,9.84
-0.04,-9.15,3.73,9.88,-4.97,-8.40,-1.49,9.88
-0.04,-9.14,3.71,9.86,-4.94,-8.42,-1.47,9.87
-0.03,-9.10,3.73,9.83,-4.93,-8.44,-1.48,9.88
-0.06,-9.14,3.72,9.86,-4.93,-8.42,-1.46,9.86
-0.04,-9.10,3.74,9.84,-4.95,-8.43,-1.48,9.89
-0.04,-9.15,3.70,9.87,-4.93,-8.41,-1.47,9.86
-0.03,-9.15,3.74,9.88,-4.95,-8.39,-1.46,9.85
-0.01,-9.12,3.71,9.85,-4.95,-8.43,-1.51,9.89
-0.03,-9.11,3.73,9.85,-4.93,-8.45,-1.47,9.89
-0.05,-9.10,3.73,9.84,-4.93,-8.43,-1.48,9.88
-0.02,-9.10,3.76,9.85,-4.93,-8.44,-1.46,9.88
-0.04,-9.15,3.76,9.89,-4.93,-8.42,-1.49,9.88
-0.02,-9.12,3.75,9.86,-4.92,-8.40,-1.51,9.85
-0.03,-9.13,3.73,9.86,-4.93,-8.42,-1.48,9.87
-0.01,-9.12,3.73,9.85,-4.93,-8.43,-1.48,9.88
-0.02,-9.12,3.72,9.85,-4.96,-8.40,-1.48,9.87
-0.03,-9.13,3.71,9.85,-4.91,-8.43,-1.49,9.87
-0.04,-9.13,3.72,9.85,-4.92,-8.39,-1.50,9.84
-0.06,-9.13,3.72,9.86,-4.93,-8.41,-1.47,9.86
-0.04,-9.14,3.71,9.86,-4.96,-8.42,-1.52,9.89
-0.06,-9.12,3.70,9.84,-4.94,-8.40,-1.48,9.86
-0.04,-9.13,3.70,9.86,-4.93,-8.40,-1.52,9.86
-0.03,-9.13,3.71,9.85,-4.94,-8.40,-1.50,9.85
-0.03,-9.11,3.70,9.84,-4.96,-8.40,-1.47,9.87
-0.04,-9.13,3.72,9.86,-4.94,-8.39,-1.53,9.85
-0.01,-9.13,3.73,9.86,-4.97,-8.42,-1.50,9.89
-0.03,-9.10,3.72,9.83,-4.94,-8.41,-1.49,9.87
-0.03,-9.12,3.73,9.85,-4.93,-8.42,-1.48,9.87
-0.03,-9.13,3.72,9.86,-4.93,-8.42,-1.51,9.88
-0.01,-9.13,3.73,9.86,-4.95,-8.43,-1.49,9.88
-0.04,-9.13,3.74,9.86,-4.94,-8.44,-1.49,9.89
-0.01,-9.10,3.73,9.83,-4.95,-8.42,-1.48,9.87
-0.03,-9.11,3.74,9.85,-4.94,-8.45,-1.51,9.90
-0.04,-9.11,3.75,9.85,-4.92,-8.42,-1.46,9.86
-0.02,-9.12,3.73,9.86,-4.95,-8.40,-1.45,9.86
-0.02,-9.12,3.74,9.86,-4.94,-8.42,-1.49,9.87
-0.02,-9.11,3.73,9.84,-4.96,-8.42,-1.46,9.88
-0.02,-9.13,3.74,9.86,-4.93,-8.43,-1.48,9.88
-0.04,-9.13,3.74,9.87,-4.96,-8.40,-1.48,9.86
-0.03,-9.10,3.72,9.83,-4.93,-8.41,-1.47,9.86
-0.03,-9.14,3.72,9.87,-4.97,-8.38,-1.50,9.86
-0.03,-9.14,3.71,9.86,-4.98,-8.41,-1.49,9.89
-0.02,-9.11,3.71,9.83,-4.96,-8.40,-1.48,9.87
-0.05,-9.11,3.71,9.84,-4.96,-8.41,-1.51,9.88
-0.03,-9.14,3.70,9.86,-4.95,-8.39,-1.48,9.85
-0.03,-9.13,3.68,9.84,-4.99,-8.38,-1.51,9.87
-0.03,-9.14,3.70,9.86,-4.97,-8.37,-1.46,9.84
-0.04,-9.12,3.72,9.85,-4.96,-8.38,-1.48,9.85
-0.05,-9.14,3.72,9.87,-5.00,-8.41,-1.48,9.90
-0.05,-9.13,3.71,9.86,-4.97,-8.41,-1.48,9.88
-0.02,-9.13,3.71,9.86,-4.94,-8.39,-1.49,9.85
-0.03,-9.13,3.74,9.87,-4.95,-8.39,-1.49,9.86
-0.05,-9.11,3.73,9.85,-4.95,-8.40,-1.47,9.86
-0.03,-9.13,3.76,9.87,-4.95,-8.40,-1.48,9.86
-0.02,-9.12,3.73,9.85,-4.96,-8.39,-1.50,9.86
-0.01,-9.12,3.75,9.86,-4.97,-8.38,-1.47,9.85
-0.00,-9.11,3.71,9.84,-4.94,-8.41,-1.45,9.86
-0.03,-9.11,3.74,9.85,-4.92,-8.40,-1.47,9.85
-0.01,-9.14,3.76,9.88,-4.94,-8.42,-1.47,9.88
-0.02,-9.14,3.74,9.88,-4.98,-8.42,-1.50,9.90
-0.03,-9.12,3.73,9.85,-4.93,-8.42,-1.51,9.87
-0.04,-9.11,3.73,9.84,-4.98,-8.42,-1.51,9.90
-0.05,-9.12,3.74,9.85,-4.93,-8.39,-1.47,9.84
-0.03,-9.13,3.74,9.86,-4.99,-8.38,-1.50,9.86
-0.05,-9.13,3.72,9.86,-4.95,-8.40,-1.49,9.87
-0.02,-9.12,3.70,9.84,-5.00,-8.39,-1.50,9.88
-0.05,-9.13,3.71,9.85,-4.97,-8.42,-1.50,9.89
-0.06,-9.13,3.71,9.85,-4.96,-8.39,-1.47,9.86
-0.05,-9.11,3.72,9.84,-4.97,-8.40,-1.53,9.88
-0.06,-9.12,3.70,9.85,-4.99,-8.39,-1.49,9.87
-0.06,-9.13,3.71,9.86,-4.99,-8.39,-1.50,9.88
-0.07,-9.10,3.71,9.83,-4.97,-8.41,-1.50,9.88
-0.06,-9.13,3.70,9.85,-4.97,-8.37,-1.45,9.85
-0.04,-9.11,3.73,9.84,-4.96,-8.41,-1.53,9.88
-0.03,-9.12,3.71,9.85,-4.97,-8.42,-1.50,9.89
-0.01,-9.16,3.72,9.89,-4.96,-8.42,-1.50,9.88
-0.00,-9.10,3.73,9.84,-4.94,-8.36,-1.51,9.83
0.01,-9.13,3.75,9.87,-4.94,-8.46,-1.50,9.91
-0.02,-9.13,3.74,9.86,-4.94,-8.41,-1.50,9.87
-0.00,-9.16,3.73,9.89,-4.94,-8.42,-1.47,9.87
-0.02,-9.09,3.75,9.84,-4.96,-8.39,-1.49,9.87
-0.03,-9.15,3.72,9.88,-4.99,-8.39,-1.47,9.87
-0.03,-9.10,3.73,9.84,-4.97,-8.40,-1.47,9.87
-0.03,-9.13,3.73,9.86,-4.96,-8.40,-1.45,9.87
-0.03,-9.13,3.74,9.86,-4.95,-8.42,-1.49,9.88
-0.02,-9.10,3.73,9.84,-4.94,-8.41,-1.49,9.87
-0.04,-9.10,3.73,9.83,-4.99,-8.40,-1.45,9.88
-0.03,-9.11,3.74,9.85,-4.96,-8.39,-1.48,9.86
-0.02,-9.13,3.74,9.87,-4.96,-8.39,-1.47,9.86
-0.02,-9.11,3.71,9.84,-4.97,-8.41,-1.52,9.89
-0.00,-9.12,3.70,9.84,-4.95,-8.41,-1.53,9.88
-0.03,-9.10,3.73,9.83,-4.95,-8.38,-1.53,9.85
-0.00,-9.13,3.69,9.84,-4.96,-8.38,-1.52,9.86
-0.02,-9.15,3.72,9.87,-4.97,-8.40,-1.51,9.88
-0.03,-9.13,3.71,9.85,-4.99,-8.38,-1.50,9.87
-0.03,-9.11,3.69,9.83,-5.00,-8.38,-1.50,9.87
-0.04,-9.12,3.69,9.84,-4.96,-8.37,-1.50,9.84
-0.03,-9.12,3.73,9.86,-4.97,-8.37,-1.51,9.86
-0.06,-9.13,3.72,9.86,-4.98,-8.40,-1.46,9.87
-0.07,-9.14,3.73,9.87,-5.00,-8.39,-1.48,9.88
-0.05,-9.14,3.74,9.88,-5.00,-8.41,-1.48,9.90
-0.06,-9.11,3.74,9.85,-4.98,-8.42,-1.48,9.90
-0.05,-9.09,3.72,9.83,-4.98,-8.41,-1.50,9.88
-0.05,-9.11,3.73,9.84,-4.98,-8.37,-1.47,9.85
-0.04,-9.14,3.73,9.87,-4.96,-8.38,-1.45,9.85
-0.02,-9.12,3.74,9.85,-4.96,-8.40,-1.47,9.86
-0.03,-9.13,3.73,9.86,-4.96,-8.43,-1.47,9.89
-0.03,-9.09,3.76,9.83,-4.93,-8.44,-1.47,9.89
-0.00,-9.10,3.74,9.84,-4.94,-8.42,-1.50,9.88
-0.01,-9.12,3.74,9.86,-4.97,-8.40,-1.50,9.87
-0.03,-9.12,3.76,9.86,-4.96,-8.40,-1.51,9.87
-0.01,-9.16,3.75,9.90,-4.97,-8.42,-1.49,9.89
-0.03,-9.11,3.75,9.86,-4.96,-8.43,-1.49,9.90
-0.02,-9.12,3.74,9.86,-4.95,-8.42,-1.45,9.87
-0.05,-9.11,3.74,9.85,-4.96,-8.37,-1.48,9.85
-0.04,-9.14,3.71,9.86,-4.97,-8.36,-1.44,9.83
-0.06,-9.12,3.72,9.85,-4.98,-8.39,-1.47,9.87
-0.04,-9.13,3.72,9.86,-4.99,-8.39,-1.48,9.87
-0.05,-9.14,3.73,9.87,-5.00,-8.38,-1.44,9.86
-0.08,-9.12,3.73,9.85,-4.97,-8.39,-1.47,9.86
-0.06,-9.12,3.71,9.85,-4.99,-8.38,-1.48,9.86
-0.03,-9.13,3.71,9.85,-4.98,-8.37,-1.49,9.85
-0.05,-9.16,3.70,9.88,-5.00,-8.37,-1.49,9.86
-0.03,-9.11,3.70,9.84,-5.00,-8.40,-1.52,9.90
-0.02,-9.13,3.72,9.86,-4.98,-8.37,-1.48,9.86
-0.03,-9.12,3.70,9.84,-4.95,-8.37,-1.51,9.85
-0.01,-9.11,3.73,9.85,-4.96,-8.39,-1.48,9.86
-0.02,-9.12,3.71,9.85,-4.97,-8.38,-1.51,9.86
-0.01,-9.13,3.73,9.87,-4.98,-8.40,-1.46,9.87
-0.03,-9.09,3.74,9.83,-4.95,-8.39,-1.47,9.85
-0.03,-9.10,3.75,9.84,-4.97,-8.41,-1.48,9.88
-0.02,-9.10,3.76,9.85,-4.96,-8.40,-1.49,9.87
-0.03,-9.12,3.75,9.86,-4.95,-8.41,-1.46,9.87
-0.04,-9.12,3.75,9.86,-4.96,-8.37,-1.48,9.85
-0.02,-9.14,3.75,9.88,-4.98,-8.41,-1.47,9.88
-0.06,-9.10,3.76,9.85,-4.98,-8.39,-1.46,9.87
-0.06,-9.14,3.75,9.88,-4.96,-8.39,-1.45,9.85
-0.05,-9.09,3.72,9.82,-4.97,-8.39,-1.50,9.87
-0.04,-9.12,3.74,9.85,-4.98,-8.36,-1.47,9.84
-0.04,-9.14,3.73,9.87,-4.99,-8.38,-1.49,9.87
-0.03,-9.13,3.71,9.86,-4.99,-8.39,-1.49,9.88
-0.03,-9.14,3.71,9.86,-4.97,-8.40,-1.48,9.87
-0.03,-9.13,3.70,9.85,-4.95,-8.38,-1.47,9.84
-0.01,-9.13,3.69,9.85,-4.96,-8.39,-1.51,9.86
-0.01,-9.14,3.71,9.86,-4.97,-8.35,-1.54,9.84
-0.02,-9.15,3.72,9.87,-4.99,-8.40,-1.51,9.89
-0.04,-9.14,3.71,9.87,-5.01,-8.39,-1.50,9.88
-0.04,-9.12,3.72,9.85,-4.98,-8.39,-1.48,9.87
-0.05,-9.11,3.74,9.84,-4.97,-8.39,-1.48,9.86
-0.04,-9.12,3.72,9.85,-4.98,-8.37,-1.47,9.85
-0.05,-9.12,3.74,9.85,-4.98,-8.32,-1.46,9.81
-0.02,-9.15,3.74,9.88,-4.98,-8.39,-1.44,9.86
-0.05,-9.13,3.75,9.87,-5.00,-8.37,-1.44,9.85
-0.05,-9.10,3.75,9.84,-4.97,-8.40,-1.46,9.87
-0.00,-9.10,3.75,9.85,-4.97,-8.39,-1.49,9.87
-0.04,-9.12,3.76,9.86,-4.98,-8.39,-1.48,9.87
-0.03,-9.13,3.74,9.87,-4.94,-8.40,-1.48,9.86
0.01,-9.14,3.77,9.88,-4.99,-8.40,-1.48,9.88
-0.02,-9.11,3.75,9.85,-4.97,-8.42,-1.47,9.89
-0.01,-9.09,3.75,9.84,-4.96,-8.42,-1.47,9.88
-0.00,-9.11,3.74,9.85,-4.95,-8.38,-1.47,9.84
-0.02,-9.14,3.73,9.87,-4.97,-8.40,-1.49,9.88
-0.04,-9.11,3.75,9.85,-4.98,-8.37,-1.48,9.85
-0.03,-9.13,3.73,9.86,-5.00,-8.38,-1.49,9.87
-0.08,-9.11,3.74,9.85,-5.01,-8.39,-1.51,9.89
-0.03,-9.12,3.73,9.85,-5.00,-8.36,-1.50,9.85
-0.03,-9.14,3.70,9.86,-4.99,-8.38,-1.48,9.87
-0.05,-9.12,3.72,9.85,-5.01,-8.34,-1.47,9.83
-0.05,-9.14,3.73,9.87,-4.99,-8.35,-1.50,9.85
-0.04,-9.13,3.72,9.86,-5.03,-8.39,-1.46,9.89
-0.02,-9.12,3.69,9.84,-5.01,-8.39,-1.49,9.88
-0.03,-9.12,3.70,9.84,-5.02,-8.38,-1.49,9.88
-0.04,-9.10,3.72,9.83,-5.00,-8.37,-1.47,9.86
-0.01,-9.12,3.75,9.86,-4.80,-8.47,-1.19,9.81
-0.02,-9.17,3.64,9.87,-4.99,-8.37,-1.66,9.89
-0.04,-9.13,3.76,9.87,-5.10,-8.40,-1.53,9.94
-0.03,-9.09,3.79,9.85,-5.12,-8.36,-1.40,9.90
-0.01,-9.10,3.69,9.82,-4.82,-8.44,-1.26,9.80
-0.00,-9.09,3.72,9.82,-5.27,-8.28,-1.64,9.95
-0.02,-9.08,3.84,9.86,-5.07,-8.32,-1.56,9.87
-0.05,-9.10,3.75,9.84,-4.96,-8.32,-1.64,9.82
-0.04,-9.11,3.70,9.83,-4.97,-8.46,-1.38,9.91
-0.04,-9.11,3.77,9.86,-5.07,-8.40,-1.44,9.91
-0.07,-9.10,3.76,9.84,-5.01,-8.42,-1.46,9.90
-0.04,-9.12,3.74,9.86,-4.97,-8.41,-1.46,9.87
-0.02,-9.12,3.73,9.85,-5.00,-8.37,-1.51,9.86
-0.03,-9.11,3.73,9.84,-4.98,-8.40,-1.50,9.88
-0.01,-9.14,3.71,9.86,-5.00,-8.40,-1.48,9.88
-0.01,-9.11,3.71,9.84,-5.06,-8.37,-1.47,9.89
-0.04,-9.11,3.70,9.84,-5.03,-8.35,-1.52,9.87
-0.02,-9.13,3.68,9.84,-5.02,-8.34,-1.52,9.85
-0.00,-9.13,3.72,9.85,-5.02,-8.34,-1.51,9.85
-0.04,-9.13,3.71,9.85,-5.02,-8.38,-1.51,9.88
-0.03,-9.12,3.70,9.84,-5.04,-8.36,-1.50,9.88
-0.01,-9.13,3.71,9.86,-5.05,-8.34,-1.52,9.87
-0.03,-9.14,3.71,9.87,-5.01,-8.37,-1.49,9.86
-0.05,-9.13,3.71,9.85,-5.04,-8.34,-1.47,9.85
-0.08,-9.13,3.72,9.86,-5.01,-8.37,-1.46,9.86
-0.06,-9.09,3.71,9.82,-5.02,-8.38,-1.46,9.88
-0.07,-9.10,3.71,9.82,-5.01,-8.35,-1.43,9.84
-0.05,-9.14,3.75,9.88,-4.99,-8.37,-1.46,9.86
-0.05,-9.12,3.77,9.87,-5.00,-8.34,-1.45,9.84
-0.03,-9.13,3.75,9.87,-4.98,-8.39,-1.45,9.86
-0.01,-9.14,3.77,9.89,-5.01,-8.39,-1.43,9.88
-0.02,-9.11,3.77,9.86,-5.01,-8.40,-1.44,9.88
-0.01,-9.04,3.73,9.78,-4.94,-8.46,-1.47,9.90
0.01,-9.12,3.74,9.86,-4.96,-8.40,-1.48,9.86
-0.01,-9.15,3.75,9.89,-4.99,-8.36,-1.49,9.85
0.00,-9.11,3.73,9.85,-4.96,-8.37,-1.47,9.84
-0.01,-9.12,3.77,9.87,-5.02,-8.35,-1.47,9.85
-0.05,-9.11,3.73,9.84,-5.01,-8.37,-1.47,9.86
-0.03,-9.10,3.70,9.82,-4.96,-8.38,-1.52,9.86
-0.03,-9.11,3.73,9.84,-5.02,-8.37,-1.54,9.88
-0.05,-9.13,3.72,9.86,-5.04,-8.37,-1.51,9.88
-0.04,-9.15,3.71,9.88,-5.03,-8.36,-1.47,9.87
-0.05,-9.14,3.71,9.86,-5.05,-8.39,-1.48,9.90
-0.04,-9.11,3.70,9.84,-5.04,-8.35,-1.52,9.87
-0.06,-9.10,3.70,9.82,-5.00,-8.38,-1.50,9.87
-0.06,-9.13,3.68,9.84,-5.01,-8.37,-1.48,9.86
-0.07,-9.15,3.73,9.88,-5.03,-8.33,-1.48,9.84
-0.07,-9.14,3.72,9.87,-5.02,-8.34,-1.49,9.85
-0.05,-9.12,3.72,9.85,-5.02,-8.36,-1.49,9.87
-0.04,-9.11,3.75,9.85,-5.00,-8.40,-1.49,9.89
-0.02,-9.11,3.71,9.83,-5.03,-8.37,-1.48,9.88
0.00,-9.10,3.72,9.83,-5.00,-8.37,-1.48,9.86
-0.02,-9.14,3.74,9.88,-5.00,-8.37,-1.47,9.87
-0.01,-9.11,3.76,9.86,-5.00,-8.40,-1.48,9.89
-0.02,-9.09,3.76,9.84,-5.00,-8.40,-1.45,9.88
-0.02,-9.08,3.76,9.83,-4.98,-8.41,-1.47,9.88
-0.04,-9.11,3.74,9.85,-4.94,-8.41,-1.45,9.86
-0.02,-9.12,3.75,9.87,-4.96,-8.39,-1.45,9.86
-0.04,-9.10,3.75,9.84,-5.02,-8.39,-1.44,9.88
-0.04,-9.11,3.76,9.85,-5.04,-8.40,-1.42,9.89
-0.04,-9.13,3.75,9.87,-5.03,-8.37,-1.45,9.87
-0.01,-9.10,3.74,9.84,-5.02,-8.38,-1.47,9.88
-0.04,-9.10,3.71,9.83,-5.04,-8.34,-1.44,9.86
-0.06,-9.13,3.73,9.86,-5.01,-8.33,-1.51,9.84
-0.03,-9.14,3.71,9.86,-5.05,-8.35,-1.50,9.88
-0.02,-9.14,3.73,9.87,-5.03,-8.35,-1.48,9.86
-0.04,-9.15,3.72,9.88,-5.02,-8.38,-1.51,9.89
-0.04,-9.12,3.70,9.84,-5.02,-8.37,-1.49,9.88
-0.02,-9.12,3.71,9.84,-5.00,-8.37,-1.52,9.87
0.00,-9.12,3.71,9.84,-5.05,-8.32,-1.53,9.85
-0.01,-9.12,3.70,9.84,-5.02,-8.34,-1.48,9.85
-0.02,-9.12,3.71,9.85,-5.01,-8.37,-1.50,9.87
-0.06,-9.11,3.73,9.85,-5.02,-8.36,-1.48,9.86
-0.03,-9.13,3.73,9.86,-5.01,-8.40,-1.46,9.89
-0.05,-9.11,3.76,9.85,-5.02,-8.38,-1.47,9.88
-0.03,-9.12,3.77,9.86,-5.02,-8.40,-1.47,9.89
-0.04,-9.12,3.74,9.86,-5.02,-8.37,-1.45,9.86
-0.06,-9.11,3.74,9.85,-5.02,-8.40,-1.46,9.90
-0.05,-9.12,3.76,9.86,-5.02,-8.34,-1.46,9.84
-0.06,-9.13,3.75,9.87,-5.01,-8.37,-1.45,9.87
-0.02,-9.11,3.76,9.85,-5.00,-8.38,-1.46,9.87
-0.02,-9.11,3.75,9.85,-5.01,-8.36,-1.46,9.85
-0.02,-9.12,3.75,9.86,-4.97,-8.37,-1.44,9.84
-0.03,-9.13,3.76,9.87,-4.98,-8.40,-1.48,9.88
-0.03,-9.14,3.74,9.88,-4.99,-8.38,-1.50,9.87
-0.00,-9.12,3.74,9.85,-4.99,-8.37,-1.47,9.86
-0.03,-9.12,3.73,9.85,-5.00,-8.41,-1.46,9.89
-0.02,-9.14,3.74,9.88,-5.02,-8.39,-1.52,9.90
-0.03,-9.12,3.74,9.85,-5.02,-8.36,-1.49,9.86
-0.02,-9.16,3.76,9.90,-5.02,-8.37,-1.50,9.87
-0.04,-9.13,3.70,9.86,-5.03,-8.39,-1.48,9.89
-0.04,-9.11,3.73,9.85,-5.05,-8.36,-1.49,9.88
-0.08,-9.12,3.71,9.85,-5.02,-8.37,-1.48,9.87
-0.05,-9.14,3.72,9.87,-5.02,-8.35,-1.48,9.86
-0.05,-9.11,3.74,9.85,-5.05,-8.37,-1.48,9.89
-0.06,-9.12,3.72,9.85,-5.02,-8.37,-1.44,9.86
-0.02,-9.07,3.74,9.81,-5.00,-8.36,-1.47,9.85
-0.04,-9.09,3.73,9.83,-5.01,-8.37,-1.50,9.87
-0.01,-9.12,3.72,9.85,-5.01,-8.36,-1.48,9.86
-0.02,-9.13,3.74,9.87,-5.02,-8.35,-1.50,9.86
-0.02,-9.11,3.72,9.83,-5.01,-8.37,-1.48,9.87
-0.04,-9.13,3.74,9.87,-5.02,-8.38,-1.51,9.89
-0.02,-9.13,3.72,9.86,-5.01,-8.37,-1.48,9.87
-0.05,-9.13,3.72,9.86,-5.02,-8.37,-1.49,9.87
-0.03,-9.11,3.74,9.85,-5.03,-8.37,-1.45,9.88
-0.04,-9.13,3.73,9.86,-5.01,-8.37,-1.47,9.87
-0.02,-9.11,3.72,9.84,-5.01,-8.35,-1.50,9.86
-0.05,-9.10,3.72,9.83,-5.01,-8.36,-1.48,9.86
-0.03,-9.13,3.75,9.87,-4.99,-8.34,-1.47,9.83
-0.03,-9.13,3.73,9.86,-5.01,-8.36,-1.51,9.86
-0.01,-9.11,3.75,9.86,-5.03,-8.36,-1.46,9.87
-0.03,-9.12,3.73,9.85,-5.03,-8.37,-1.47,9.88
-0.02,-9.12,3.72,9.85,-5.00,-8.37,-1.48,9.86
-0.05,-9.13,3.74,9.87,-5.07,-8.35,-1.45,9.88
-0.04,-9.11,3.74,9.85,-5.03,-8.38,-1.52,9.89
-0.06,-9.14,3.74,9.87,-5.00,-8.38,-1.46,9.86
-0.05,-9.12,3.72,9.85,-5.03,-8.37,-1.47,9.87
-0.03,-9.12,3.75,9.87,-5.02,-8.38,-1.52,9.88
-0.04,-9.13,3.72,9.86,-5.01,-8.36,-1.48,9.86
-0.01,-9.14,3.73,9.87,-5.03,-8.35,-1.50,9.86
-0.03,-9.12,3.73,9.85,-5.02,-8.34,-1.47,9.85
-0.03,-9.12,3.73,9.85,-5.00,-8.38,-1.48,9.87
-0.03,-9.13,3.74,9.87,-5.01,-8.36,-1.47,9.86
-0.03,-9.11,3.72,9.84,-5.00,-8.38,-1.51,9.88
-0.03,-9.10,3.73,9.84,-4.99,-8.36,-1.47,9.84
-0.03,-9.10,3.74,9.84,-5.01,-8.36,-1.48,9.86
-0.05,-9.13,3.76,9.87,-5.02,-8.38,-1.47,9.88
-0.04,-9.13,3.75,9.87,-5.02,-8.35,-1.48,9.86
-0.03,-9.10,3.76,9.85,-4.99,-8.36,-1.46,9.84
-0.03,-9.10,3.75,9.84,-5.00,-8.39,-1.50,9.88
-0.03,-9.13,3.75,9.87,-5.00,-8.37,-1.50,9.87
-0.04,-9.11,3.74,9.85,-5.05,-8.36,-1.47,9.88
-0.06,-9.13,3.72,9.86,-5.07,-8.37,-1.47,9.90
-0.07,-9.12,3.74,9.86,-5.05,-8.36,-1.47,9.88
-0.10,-9.10,3.73,9.84,-5.04,-8.34,-1.45,9.85
-0.06,-9.15,3.70,9.87,-5.03,-8.35,-1.48,9.86
-0.07,-9.13,3.73,9.86,-5.02,-8.36,-1.47,9.86
-0.03,-9.14,3.74,9.87,-5.05,-8.36,-1.51,9.88
-0.01,-9.14,3.71,9.87,-5.02,-8.36,-1.50,9.87
-0.02,-9.11,3.73,9.85,-5.00,-8.35,-1.48,9.85
-0.02,-9.11,3.72,9.84,-4.99,-8.38,-1.53,9.87
-0.04,-9.10,3.73,9.83,-5.04,-8.37,-1.48,9.88
-0.01,-9.12,3.74,9.86,-5.02,-8.39,-1.49,9.89
-0.02,-9.12,3.73,9.85,-5.02,-8.37,-1.50,9.88
-0.03,-9.13,3.74,9.86,-5.04,-8.36,-1.46,9.87
-0.05,-9.13,3.74,9.86,-5.05,-8.36,-1.49,9.88
-0.06,-9.12,3.73,9.85,-5.03,-8.37,-1.48,9.87
-0.03,-9.10,3.74,9.84,-5.04,-8.38,-1.46,9.89
-0.01,-9.11,3.76,9.86,-5.04,-8.34,-1.45,9.85
-0.04,-9.14,3.74,9.87,-5.04,-8.34,-1.46,9.86
-0.05,-9.10,3.75,9.84,-5.03,-8.37,-1.48,9.88
-0.06,-9.09,3.74,9.83,-5.03,-8.36,-1.44,9.87
-0.02,-9.12,3.74,9.86,-5.01,-8.39,-1.46,9.88
-0.04,-9.11,3.74,9.85,-5.02,-8.38,-1.47,9.88
-0.05,-9.11,3.73,9.84,-5.03,-8.36,-1.47,9.87
-0.02,-9.13,3.74,9.86,-5.03,-8.37,-1.50,9.88
-0.03,-9.14,3.74,9.87,-5.06,-8.38,-1.45,9.90
-0.03,-9.11,3.74,9.85,-5.00,-8.38,-1.48,9.87
-0.03,-9.08,3.72,9.82,-5.01,-8.35,-1.48,9.85
-0.02,-9.10,3.73,9.84,-5.03,-8.35,-1.50,9.86
-0.06,-9.10,3.71,9.83,-5.01,-8.35,-1.48,9.85
-0.04,-9.15,3.73,9.88,-5.03,-8.32,-1.48,9.83
-0.05,-9.14,3.73,9.87,-5.05,-8.30,-1.44,9.82
-0.05,-9.13,3.75,9.87,-5.03,-8.37,-1.47,9.87
-0.07,-9.12,3.73,9.86,-5.07,-8.39,-1.47,9.91
-0.07,-9.10,3.75,9.85,-5.04,-8.35,-1.50,9.87
-0.05,-9.14,3.74,9.87,-5.04,-8.36,-1.46,9.87
-0.04,-9.11,3.74,9.85,-5.02,-8.36,-1.47,9.86
-0.03,-9.10,3.76,9.85,-5.03,-8.36,-1.46,9.86
-0.05,-9.11,3.77,9.86,-5.02,-8.34,-1.47,9.85
-0.07,-9.12,3.72,9.85,-5.02,-8.36,-1.47,9.86
-0.04,-9.13,3.74,9.87,-5.01,-8.36,-1.51,9.86
-0.05,-9.13,3.73,9.86,-5.02,-8.38,-1.50,9.88
-0.02,-9.14,3.73,9.87,-5.04,-8.36,-1.50,9.88
-0.03,-9.12,3.72,9.85,-5.03,-8.38,-1.48,9.88
-0.04,-9.12,3.74,9.86,-5.06,-8.36,-1.46,9.88
-0.02,-9.10,3.71,9.83,-5.04,-8.37,-1.49,9.88
-0.04,-9.10,3.72,9.83,-5.01,-8.35,-1.50,9.86
-0.01,-9.11,3.73,9.84,-5.04,-8.35,-1.49,9.86
-0.02,-9.13,3.74,9.87,-5.03,-8.33,-1.46,9.84
-0.04,-9.13,3.73,9.86,-5.03,-8.37,-1.46,9.87
-0.04,-9.11,3.74,9.85,-5.05,-8.38,-1.45,9.89
-0.03,-9.10,3.75,9.84,-5.06,-8.39,-1.47,9.91
-0.04,-9.12,3.75,9.86,-4.99,-8.40,-1.46,9.88
-0.05,-9.12,3.76,9.86,-5.03,-8.35,-1.49,9.87
-0.04,-9.11,3.75,9.85,-5.05,-8.38,-1.48,9.89
-0.03,-9.12,3.74,9.85,-5.01,-8.38,-1.45,9.87
-0.02,-9.11,3.76,9.86,-5.05,-8.35,-1.50,9.87
-0.01,-9.11,3.74,9.85,-5.02,-8.37,-1.43,9.86
-0.03,-9.11,3.73,9.84,-5.01,-8.37,-1.47,9.87
0.00,-9.13,3.73,9.87,-5.05,-8.35,-1.49,9.87
-0.03,-9.12,3.74,9.85,-5.04,-8.34,-1.50,9.86
-0.03,-9.10,3.74,9.84,-5.03,-8.35,-1.52,9.87
-0.02,-9.11,3.73,9.85,-5.01,-8.34,-1.50,9.85
-0.03,-9.15,3.74,9.88,-5.02,-8.35,-1.48,9.86
-0.01,-9.11,3.74,9.84,-5.03,-8.37,-1.47,9.87
-0.02,-9.11,3.73,9.85,-5.06,-8.36,-1.47,9.89
-0.04,-9.13,3.74,9.87,-5.04,-8.35,-1.46,9.87
-0.05,-9.11,3.74,9.85,-5.07,-8.36,-1.47,9.89
-0.02,-9.10,3.73,9.83,-5.07,-8.35,-1.45,9.88
-0.03,-9.11,3.74,9.85,-5.02,-8.37,-1.46,9.87
-0.06,-9.12,3.73,9.85,-5.04,-8.34,-1.48,9.86
-0.05,-9.13,3.74,9.87,-5.03,-8.32,-1.48,9.83
-0.06,-9.11,3.73,9.85,-5.04,-8.35,-1.47,9.87
-0.06,-9.13,3.76,9.88,-5.04,-8.36,-1.43,9.86
-0.04,-9.08,3.74,9.82,-5.04,-8.37,-1.46,9.88
-0.03,-9.10,3.73,9.83,-5.04,-8.36,-1.50,9.88
-0.02,-9.13,3.75,9.87,-5.04,-8.38,-1.49,9.89
-0.03,-9.13,3.76,9.87,-5.03,-8.36,-1.49,9.87
-0.01,-9.08,3.74,9.82,-4.99,-8.38,-1.46,9.86
0.01,-9.10,3.77,9.85,-5.02,-8.36,-1.48,9.87
-0.01,-9.11,3.75,9.85,-5.04,-8.35,-1.48,9.87
-0.02,-9.09,3.74,9.83,-5.00,-8.36,-1.49,9.85
-0.01,-9.12,3.74,9.86,-5.07,-8.33,-1.49,9.87
-0.02,-9.14,3.74,9.87,-5.05,-8.36,-1.46,9.88
-0.05,-9.11,3.74,9.85,-5.06,-8.34,-1.48,9.87
-0.07,-9.11,3.73,9.85,-5.03,-8.35,-1.47,9.86
-0.06,-9.11,3.75,9.85,-5.06,-8.31,-1.45,9.83
-0.07,-9.12,3.74,9.85,-5.05,-8.35,-1.49,9.87
-0.06,-9.14,3.74,9.88,-5.06,-8.34,-1.47,9.86
-0.04,-9.14,3.72,9.87,-5.07,-8.32,-1.46,9.85
-0.02,-9.11,3.74,9.85,-5.08,-8.33,-1.48,9.87
-0.04,-9.11,3.71,9.84,-5.01,-8.35,-1.48,9.84
-0.04,-9.10,3.72,9.83,-5.05,-8.35,-1.50,9.88
0.01,-9.11,3.76,9.85,-5.01,-8.37,-1.51,9.87
-0.03,-9.12,3.73,9.86,-5.01,-8.36,-1.50,9.86
-0.01,-9.09,3.73,9.83,-5.03,-8.38,-1.50,9.89
-0.03,-9.11,3.74,9.85,-5.03,-8.36,-1.47,9.86
-0.03,-9.10,3.73,9.84,-5.03,-8.34,-1.46,9.85
-0.04,-9.13,3.75,9.87,-5.05,-8.35,-1.47,9.87
-0.05,-9.13,3.72,9.86,-5.04,-8.37,-1.47,9.88
-0.08,-9.11,3.76,9.86,-5.06,-8.36,-1.51,9.89
-0.05,-9.13,3.75,9.87,-5.06,-8.37,-1.41,9.88
-0.06,-9.12,3.75,9.86,-5.07,-8.34,-1.45,9.87
-0.06,-9.11,3.75,9.86,-5.09,-8.35,-1.46,9.88
-0.05,-9.09,3.74,9.83,-5.07,-8.33,-1.47,9.86
-0.04,-9.09,3.75,9.83,-5.07,-8.35,-1.43,9.87
-0.01,-9.11,3.74,9.84,-5.06,-8.33,-1.48,9.85
-0.05,-9.13,3.75,9.87,-5.03,-8.36,-1.49,9.87
-0.02,-9.13,3.73,9.86,-5.04,-8.36,-1.48,9.87
-0.02,-9.12,3.73,9.85,-5.03,-8.36,-1.48,9.87
0.00,-9.09,3.74,9.83,-5.05,-8.37,-1.47,9.89
-0.00,-9.10,3.74,9.84,-5.07,-8.36,-1.50,9.89
-0.01,-9.12,3.72,9.85,-5.04,-8.36,-1.50,9.88
-0.02,-9.12,3.73,9.85,-5.04,-8.35,-1.49,9.87
-0.03,-9.13,3.72,9.86,-5.07,-8.35,-1.51,9.89
-0.06,-9.12,3.72,9.85,-5.08,-8.36,-1.46,9.89
-0.07,-9.11,3.74,9.85,-5.06,-8.34,-1.48,9.87
-0.04,-9.13,3.73,9.86,-5.08,-8.32,-1.44,9.86
-0.07,-9.15,3.74,9.89,-5.09,-8.35,-1.44,9.89
-0.06,-9.14,3.75,9.88,-5.07,-8.38,-1.48,9.90
-0.04,-9.10,3.76,9.85,-5.07,-8.37,-1.47,9.90
-0.01,-9.14,3.77,9.89,-5.06,-8.38,-1.51,9.91
-0.04,-9.10,3.78,9.85,-5.05,-8.40,-1.48,9.91
-0.04,-9.10,3.74,9.83,-5.05,-8.36,-1.50,9.88
-0.01,-9.09,3.73,9.83,-5.01,-8.36,-1.49,9.86
-0.02,-9.13,3.74,9.86,-5.03,-8.35,-1.49,9.86
-0.01,-9.13,3.74,9.87,-5.03,-8.34,-1.48,9.85
-0.00,-9.10,3.73,9.84,-5.06,-8.34,-1.46,9.86
-0.03,-9.14,3.75,9.88,-5.09,-8.33,-1.46,9.87
-0.05,-9.14,3.73,9.88,-5.08,-8.36,-1.49,9.90
-0.06,-9.11,3.77,9.86,-5.03,-8.37,-1.50,9.88
-0.03,-9.10,3.74,9.84,-5.08,-8.38,-1.49,9.91
-0.09,-9.10,3.77,9.85,-5.08,-8.37,-1.42,9.89
-0.07,-9.10,3.73,9.84,-5.06,-8.33,-1.45,9.86
-0.02,-9.10,3.75,9.84,-5.07,-8.32,-1.46,9.85
-0.08,-9.12,3.75,9.86,-5.10,-8.31,-1.49,9.86
-0.05,-9.12,3.73,9.86,-5.07,-8.34,-1.46,9.87
-0.05,-9.12,3.71,9.85,-5.07,-8.33,-1.47,9.86
-0.03,-9.12,3.73,9.85,-5.05,-8.34,-1.49,9.86
-0.04,-9.11,3.75,9.85,-5.06,-8.36,-1.48,9.88
-0.03,-9.11,3.72,9.84,-5.06,-8.37,-1.49,9.89
-0.04,-9.13,3.77,9.87,-5.09,-8.38,-1.49,9.91
-0.02,-9.14,3.73,9.87,-5.07,-8.38,-1.50,9.91
-0.01,-9.13,3.72,9.86,-5.06,-8.34,-1.49,9.86
-0.03,-9.12,3.73,9.85,-5.06,-8.34,-1.49,9.87
-0.04,-9.12,3.74,9.86,-5.09,-8.31,-1.51,9.86
-0.05,-9.11,3.74,9.85,-5.04,-8.30,-1.46,9.82
-0.03,-9.12,3.74,9.85,-5.07,-8.32,-1.46,9.85
-0.06,-9.10,3.74,9.84,-5.06,-8.34,-1.50,9.87
-0.05,-9.16,3.76,9.90,-5.06,-8.37,-1.49,9.89
-0.03,-9.10,3.76,9.85,-5.06,-8.37,-1.46,9.89
-0.04,-9.12,3.74,9.86,-5.06,-8.37,-1.47,9.89
-0.02,-9.06,3.74,9.80,-5.03,-8.39,-1.45,9.89
-0.02,-9.11,3.76,9.86,-5.04,-8.35,-1.52,9.87
-0.04,-9.10,3.75,9.85,-5.03,-8.35,-1.48,9.86
-0.01,-9.08,3.74,9.82,-5.02,-8.33,-1.47,9.83
-0.02,-9.13,3.76,9.87,-5.06,-8.31,-1.49,9.84
-0.02,-9.11,3.76,9.86,-5.08,-8.31,-1.50,9.86
-0.05,-9.10,3.72,9.83,-5.12,-8.34,-1.46,9.89
-0.08,-9.10,3.73,9.84,-5.12,-8.35,-1.48,9.90
-0.04,-9.10,3.74,9.84,-5.08,-8.34,-1.51,9.89
-0.02,-9.11,3.74,9.85,-5.05,-8.34,-1.54,9.86
-0.03,-9.13,3.73,9.86,-5.08,-8.33,-1.52,9.88
-0.03,-9.10,3.74,9.84,-5.09,-8.31,-1.50,9.86
-0.04,-9.10,3.73,9.83,-5.09,-8.31,-1.48,9.85
-0.03,-9.10,3.73,9.83,-5.05,-8.36,-1.49,9.88
-0.04,-9.12,3.74,9.86,-5.09,-8.32,-1.46,9.86
-0.04,-9.11,3.75,9.85,-5.10,-8.34,-1.46,9.88
-0.04,-9.12,3.74,9.86,-5.06,-8.32,-1.49,9.86
-0.07,-9.14,3.75,9.88,-5.07,-8.35,-1.51,9.88
-0.05,-9.10,3.74,9.84,-5.09,-8.36,-1.48,9.90
-0.04,-9.11,3.77,9.86,-5.07,-8.37,-1.47,9.89
-0.05,-9.11,3.74,9.85,-5.07,-8.33,-1.49,9.86
-0.04,-9.10,3.74,9.84,-5.08,-8.32,-1.47,9.86
-0.04,-9.10,3.74,9.84,-5.08,-8.31,-1.50,9.85
-0.04,-9.11,3.76,9.86,-5.09,-8.35,-1.46,9.88
-0.05,-9.12,3.76,9.86,-5.05,-8.32,-1.49,9.85
-0.03,-9.10,3.75,9.84,-5.08,-8.37,-1.47,9.89
-0.00,-9.12,3.76,9.86,-5.06,-8.35,-1.52,9.89
-0.01,-9.09,3.74,9.83,-5.10,-8.33,-1.48,9.88
-0.02,-9.11,3.75,9.85,-5.05,-8.34,-1.49,9.86
-0.01,-9.10,3.75,9.84,-5.06,-8.34,-1.48,9.87
-0.04,-9.12,3.75,9.86,-5.09,-8.35,-1.48,9.89
-0.04,-9.10,3.75,9.84,-5.06,-8.34,-1.52,9.87
-0.05,-9.12,3.75,9.86,-5.10,-8.33,-1.49,9.88
-0.06,-9.10,3.75,9.85,-5.08,-8.32,-1.49,9.86
-0.04,-9.11,3.73,9.84,-5.05,-8.32,-1.40,9.83
-0.04,-9.13,3.69,9.84,-5.09,-8.31,-1.55,9.87
-0.02,-9.12,3.75,9.86,-5.16,-8.34,-1.53,9.93
-0.04,-9.10,3.77,9.85,-5.19,-8.34,-1.51,9.93
-0.03,-9.10,3.74,9.84,-5.06,-8.33,-1.48,9.86
-0.03,-9.12,3.73,9.85,-5.07,-8.33,-1.50,9.87
-0.03,-9.14,3.76,9.89,-5.08,-8.31,-1.51,9.86
-0.04,-9.12,3.75,9.86,-5.08,-8.35,-1.48,9.89
-0.05,-9.06,3.74,9.80,-5.08,-8.35,-1.49,9.89
-0.01,-9.09,3.74,9.83,-5.10,-8.34,-1.46,9.88
-0.05,-9.13,3.74,9.86,-5.12,-8.28,-1.46,9.85
-0.05,-9.13,3.73,9.87,-5.09,-8.29,-1.47,9.84
-0.03,-9.13,3.74,9.86,-5.13,-8.31,-1.44,9.87
-0.04,-9.13,3.74,9.87,-5.13,-8.31,-1.46,9.87
-0.04,-9.11,3.75,9.85,-5.09,-8.34,-1.50,9.89
-0.06,-9.10,3.73,9.84,-5.08,-8.31,-1.46,9.85
-0.04,-9.11,3.76,9.86,-5.10,-8.30,-1.50,9.86
-0.02,-9.13,3.74,9.86,-5.10,-8.32,-1.49,9.87
-0.03,-9.14,3.77,9.88,-5.11,-8.32,-1.46,9.88
-0.03,-9.10,3.77,9.85,-5.10,-8.36,-1.46,9.90
-0.01,-9.07,3.76,9.82,-5.04,-8.36,-1.46,9.87
0.02,-9.11,3.76,9.86,-5.07,-8.35,-1.49,9.88
-0.02,-9.11,3.78,9.87,-5.05,-8.32,-1.51,9.85
-0.00,-9.11,3.78,9.86,-5.07,-8.33,-1.50,9.87
-0.03,-9.12,3.77,9.87,-5.12,-8.32,-1.49,9.88
-0.06,-9.11,3.75,9.85,-5.12,-8.34,-1.47,9.90
-0.09,-9.08,3.75,9.82,-5.11,-8.35,-1.45,9.90
-0.05,-9.10,3.72,9.83,-5.12,-8.29,-1.51,9.86
-0.08,-9.13,3.73,9.86,-5.10,-8.29,-1.47,9.85
-0.07,-9.13,3.74,9.87,-5.12,-8.28,-1.45,9.84
-0.07,-9.12,3.74,9.86,-5.10,-8.31,-1.48,9.86
-0.04,-9.11,3.75,9.85,-5.14,-8.30,-1.47,9.87
-0.01,-9.12,3.73,9.85,-5.07,-8.34,-1.49,9.87
-0.03,-9.12,3.74,9.85,-5.08,-8.35,-1.51,9.89
-0.03,-9.12,3.76,9.86,-5.08,-8.32,-1.52,9.87
-0.04,-9.14,3.73,9.87,-5.07,-8.33,-1.51,9.86
-0.03,-9.13,3.75,9.87,-5.12,-8.33,-1.44,9.88
-0.02,-9.13,3.75,9.87,-5.07,-8.32,-1.49,9.86
-0.04,-9.10,3.77,9.85,-5.09,-8.34,-1.49,9.88
-0.03,-9.08,3.77,9.84,-5.08,-8.32,-1.48,9.86
-0.03,-9.14,3.74,9.87,-5.07,-8.30,-1.46,9.84
-0.04,-9.13,3.75,9.87,-5.11,-8.32,-1.42,9.87
-0.05,-9.12,3.78,9.87,-5.11,-8.35,-1.46,9.90
-0.02,-9.13,3.78,9.88,-5.12,-8.34,-1.45,9.89
-0.02,-9.09,3.78,9.84,-5.11,-8.33,-1.48,9.88
-0.02,-9.09,3.77,9.84,-5.10,-8.33,-1.46,9.87
-0.03,-9.08,3.77,9.83,-5.06,-8.31,-1.47,9.84
-0.02,-9.11,3.76,9.86,-5.08,-8.31,-1.45,9.84
-0.03,-9.11,3.76,9.86,-5.07,-8.32,-1.48,9.85
-0.05,-9.11,3.76,9.86,-5.09,-8.33,-1.48,9.87
-0.03,-9.15,3.76,9.89,-5.09,-8.32,-1.51,9.87
-0.01,-9.09,3.75,9.83,-5.10,-8.32,-1.52,9.88
-0.04,-9.11,3.76,9.85,-5.11,-8.31,-1.51,9.87
-0.04,-9.12,3.73,9.85,-5.08,-8.31,-1.49,9.85
-0.04,-9.13,3.74,9.86,-5.10,-8.31,-1.48,9.86
-0.06,-9.17,3.73,9.90,-5.12,-8.28,-1.47,9.85
-0.06,-9.13,3.73,9.87,-5.13,-8.31,-1.48,9.87
-0.06,-9.11,3.73,9.85,-5.12,-8.31,-1.47,9.87
-0.04,-9.10,3.73,9.83,-5.10,-8.29,-1.53,9.86
-0.04,-9.11,3.71,9.83,-5.11,-8.29,-1.48,9.85
-0.05,-9.11,3.74,9.85,-5.10,-8.28,-1.50,9.84
-0.05,-9.15,3.77,9.89,-5.12,-8.30,-1.50,9.86
-0.02,-9.15,3.76,9.90,-5.10,-8.33,-1.45,9.87
-0.03,-9.11,3.77,9.86,-5.09,-8.35,-1.46,9.89
-0.05,-9.11,3.76,9.86,-5.09,-8.38,-1.48,9.91
-0.02,-9.08,3.76,9.83,-5.09,-8.35,-1.47,9.89
-0.01,-9.07,3.75,9.82,-5.09,-8.33,-1.48,9.87
-0.03,-9.12,3.77,9.86,-5.05,-8.30,-1.53,9.84
-0.02,-9.11,3.77,9.87,-5.07,-8.29,-1.45,9.83
-0.02,-9.13,3.76,9.88,-5.09,-8.32,-1.46,9.86
-0.03,-9.11,3.78,9.86,-5.09,-8.33,-1.46,9.87
-0.03,-9.07,3.75,9.82,-5.07,-8.34,-1.50,9.88
-0.04,-9.10,3.75,9.84,-5.11,-8.33,-1.51,9.89
-0.04,-9.12,3.78,9.87,-5.11,-8.37,-1.51,9.92
-0.03,-9.13,3.77,9.88,-5.09,-8.37,-1.49,9.90
-0.05,-9.14,3.77,9.89,-5.12,-8.34,-1.49,9.90
-0.04,-9.11,3.75,9.85,-5.14,-8.32,-1.48,9.89
-0.03,-9.06,3.74,9.80,-5.11,-8.29,-1.45,9.85
-0.03,-9.12,3.71,9.84,-5.10,-8.30,-1.48,9.85
-0.07,-9.14,3.73,9.87,-5.12,-8.26,-1.52,9.83
-0.05,-9.13,3.72,9.86,-5.13,-8.28,-1.49,9.86
-0.03,-9.11,3.72,9.84,-5.11,-8.28,-1.47,9.84
-0.04,-9.10,3.73,9.83,-5.12,-8.30,-1.50,9.87
-0.04,-9.12,3.73,9.85,-5.09,-8.32,-1.49,9.87
-0.04,-9.12,3.72,9.85,-5.10,-8.36,-1.54,9.92
-0.04,-9.13,3.76,9.88,-5.08,-8.35,-1.48,9.88
0.00,-9.11,3.76,9.86,-5.08,-8.33,-1.51,9.87
-0.01,-9.10,3.75,9.85,-5.08,-8.33,-1.48,9.86
-0.01,-9.09,3.77,9.84,-5.08,-8.32,-1.47,9.86
-0.02,-9.09,3.77,9.84,-5.09,-8.31,-1.47,9.86
-0.05,-9.08,3.79,9.84,-5.09,-8.32,-1.48,9.87
-0.03,-9.10,3.78,9.85,-5.08,-8.33,-1.48,9.86
-0.03,-9.08,3.75,9.82,-5.11,-8.34,-1.46,9.89
-0.03,-9.13,3.77,9.87,-5.10,-8.33,-1.49,9.88
-0.03,-9.10,3.77,9.85,-5.09,-8.33,-1.52,9.88
-0.06,-9.13,3.75,9.87,-5.11,-8.37,-1.45,9.91
-0.04,-9.10,3.76,9.84,-5.10,-8.32,-1.49,9.87
-0.02,-9.10,3.77,9.85,-5.10,-8.30,-1.45,9.85
-0.03,-9.12,3.75,9.86,-5.08,-8.29,-1.46,9.83
-0.01,-9.10,3.72,9.83,-5.14,-8.27,-1.49,9.85
-0.01,-9.13,3.74,9.87,-5.10,-8.30,-1.48,9.85
-0.05,-9.13,3.72,9.86,-5.13,-8.31,-1.48,9.88
-0.02,-9.11,3.74,9.85,-5.09,-8.30,-1.49,9.85
-0.05,-9.13,3.72,9.86,-5.11,-8.32,-1.51,9.88
-0.03,-9.12,3.74,9.86,-5.12,-8.30,-1.51,9.87
-0.03,-9.10,3.75,9.84,-5.10,-8.31,-1.48,9.87
-0.05,-9.14,3.74,9.87,-5.14,-8.30,-1.50,9.87
-0.02,-9.09,3.75,9.83,-5.11,-8.29,-1.47,9.84
-0.04,-9.11,3.75,9.85,-5.12,-8.31,-1.46,9.87
-0.04,-9.12,3.75,9.86,-5.12,-8.28,-1.49,9.85
-0.07,-9.13,3.75,9.87,-5.08,-8.32,-1.46,9.85
-0.05,-9.11,3.75,9.86,-5.09,-8.31,-1.48,9.86
-0.03,-9.08,3.75,9.83,-5.11,-8.30,-1.45,9.85
-0.05,-9.10,3.78,9.86,-5.10,-8.30,-1.49,9.85
-0.02,-9.11,3.77,9.86,-5.12,-8.30,-1.49,9.86
-0.04,-9.10,3.77,9.85,-5.12,-8.33,-1.48,9.89
-0.04,-9.11,3.76,9.86,-5.11,-8.33,-1.51,9.89
-0.03,-9.10,3.77,9.85,-5.09,-8.35,-1.47,9.89
-0.03,-9.08,3.77,9.83,-5.09,-8.33,-1.49,9.88
-0.00,-9.10,3.78,9.85,-5.07,-8.34,-1.49,9.87
-0.04,-9.11,3.76,9.86,-5.08,-8.32,-1.50,9.86
-0.03,-9.10,3.78,9.85,-5.08,-8.30,-1.48,9.84
-0.02,-9.12,3.74,9.86,-5.10,-8.33,-1.47,9.87
-0.04,-9.11,3.73,9.84,-5.11,-8.31,-1.45,9.86
-0.07,-9.09,3.75,9.84,-5.13,-8.30,-1.46,9.87
-0.05,-9.11,3.75,9.85,-5.12,-8.29,-1.49,9.86
-0.04,-9.12,3.71,9.84,-5.13,-8.29,-1.50,9.86
-0.06,-9.10,3.74,9.84,-5.14,-8.27,-1.49,9.85
-0.06,-9.11,3.74,9.85,-5.13,-8.30,-1.48,9.87
-0.07,-9.12,3.72,9.85,-5.12,-8.30,-1.47,9.86
-0.06,-9.09,3.74,9.83,-5.10,-8.30,-1.48,9.85
-0.03,-9.14,3.74,9.88,-5.09,-8.29,-1.48,9.84
-0.03,-9.12,3.74,9.86,-5.10,-8.30,-1.52,9.86
-0.02,-9.09,3.74,9.83,-5.11,-8.33,-1.51,9.89
-0.02,-9.12,3.74,9.85,-5.10,-8.31,-1.50,9.86
-0.02,-9.10,3.76,9.85,-5.10,-8.34,-1.49,9.89
0.01,-9.10,3.75,9.85,-5.08,-8.35,-1.50,9.89
-0.00,-9.11,3.76,9.85,-5.10,-8.31,-1.51,9.86
-0.03,-9.09,3.77,9.84,-5.13,-8.31,-1.46,9.87
-0.04,-9.10,3.77,9.85,-5.07,-8.32,-1.46,9.85
-0.05,-9.09,3.78,9.84,-5.09,-8.33,-1.46,9.87
-0.04,-9.10,3.77,9.85,-5.11,-8.34,-1.48,9.89
-0.04,-9.11,3.78,9.86,-5.12,-8.32,-1.46,9.88
-0.05,-9.11,3.77,9.86,-5.10,-8.30,-1.47,9.85
-0.06,-9.13,3.78,9.88,-5.12,-8.31,-1.48,9.87
-0.05,-9.11,3.76,9.86,-5.09,-8.32,-1.46,9.87
-0.06,-9.11,3.76,9.85,-5.10,-8.30,-1.47,9.85
-0.04,-9.09,3.75,9.84,-5.10,-8.32,-1.48,9.87
-0.02,-9.11,3.75,9.85,-5.11,-8.33,-1.50,9.88
-0.03,-9.12,3.74,9.85,-5.11,-8.32,-1.50,9.87
-0.02,-9.13,3.76,9.87,-5.10,-8.31,-1.52,9.87
-0.03,-9.13,3.73,9.86,-5.14,-8.28,-1.49,9.85
-0.02,-9.11,3.73,9.84,-5.11,-8.30,-1.49,9.86
-0.04,-9.11,3.74,9.85,-5.14,-8.29,-1.49,9.87
-0.03,-9.11,3.74,9.85,-5.12,-8.31,-1.53,9.88
-0.04,-9.12,3.75,9.86,-5.12,-8.30,-1.50,9.87
-0.02,-9.11,3.73,9.85,-5.11,-8.29,-1.47,9.85
-0.03,-9.10,3.77,9.85,-5.12,-8.29,-1.47,9.86
-0.05,-9.10,3.75,9.84,-5.11,-8.32,-1.49,9.88
-0.03,-9.11,3.76,9.86,-5.11,-8.31,-1.47,9.86
-0.05,-9.10,3.78,9.85,-5.14,-8.27,-1.44,9.85
-0.05,-9.10,3.78,9.86,-5.10,-8.32,-1.47,9.87
-0.03,-9.12,3.77,9.87,-5.12,-8.34,-1.47,9.90
-0.03,-9.10,3.77,9.85,-5.08,-8.33,-1.51,9.87
-0.04,-9.09,3.78,9.84,-5.10,-8.36,-1.49,9.91
-0.04,-9.11,3.79,9.87,-5.08,-8.32,-1.49,9.86
-0.01,-9.11,3.79,9.86,-5.11,-8.32,-1.48,9.88
-0.05,-9.12,3.76,9.86,-5.12,-8.30,-1.52,9.87
-0.05,-9.10,3.76,9.85,-5.09,-8.32,-1.51,9.87
-0.06,-9.12,3.77,9.87,-5.09,-8.35,-1.50,9.90
-0.03,-9.10,3.73,9.84,-5.11,-8.31,-1.48,9.86
-0.03,-9.10,3.76,9.84,-5.12,-8.30,-1.48,9.86
-0.05,-9.09,3.73,9.83,-5.11,-8.31,-1.51,9.87
-0.05,-9.13,3.74,9.87,-5.10,-8.30,-1.47,9.85
-0.05,-9.12,3.76,9.86,-5.11,-8.31,-1.49,9.87
-0.04,-9.11,3.73,9.84,-5.13,-8.31,-1.48,9.88
-0.03,-9.10,3.75,9.84,-5.13,-8.33,-1.48,9.89
-0.07,-9.14,3.76,9.88,-5.11,-8.31,-1.50,9.87
-0.08,-9.13,3.73,9.86,-5.11,-8.28,-1.50,9.85
-0.07,-9.10,3.74,9.84,-5.11,-8.30,-1.48,9.86
-0.02,-9.12,3.75,9.86,-5.15,-8.29,-1.48,9.87
-0.05,-9.14,3.74,9.88,-5.13,-8.31,-1.48,9.87
-0.04,-9.11,3.77,9.86,-5.11,-8.30,-1.45,9.86
-0.05,-9.08,3.77,9.83,-5.12,-8.28,-1.47,9.85
-0.03,-9.12,3.74,9.86,-5.12,-8.32,-1.46,9.88
-0.06,-9.12,3.75,9.86,-5.14,-8.28,-1.53,9.86
-0.03,-9.09,3.80,9.85,-5.15,-8.30,-1.46,9.88
-0.02,-9.08,3.76,9.83,-5.05,-8.31,-1.48,9.83
-0.02,-9.11,3.77,9.86,-5.08,-8.29,-1.49,9.83
-0.00,-9.11,3.75,9.85,-5.11,-8.30,-1.48,9.85
-0.02,-9.10,3.77,9.85,-5.08,-8.34,-1.47,9.88
0.01,-9.11,3.77,9.86,-5.11,-8.31,-1.49,9.87
-0.04,-9.11,3.78,9.86,-5.14,-8.36,-1.47,9.92
-0.05,-9.09,3.79,9.85,-5.11,-8.36,-1.50,9.91
-0.04,-9.08,3.76,9.83,-5.12,-8.32,-1.46,9.88
-0.02,-9.08,3.78,9.83,-5.08,-8.31,-1.51,9.86
-0.05,-9.12,3.75,9.86,-5.11,-8.27,-1.48,9.83
-0.03,-9.14,3.74,9.87,-5.11,-8.26,-1.49,9.82
-0.02,-9.12,3.73,9.85,-5.13,-8.27,-1.46,9.84
-0.04,-9.10,3.74,9.84,-5.15,-8.27,-1.50,9.86
-0.04,-9.11,3.73,9.84,-5.12,-8.30,-1.48,9.86
-0.03,-9.12,3.74,9.86,-5.15,-8.29,-1.49,9.87
-0.04,-9.10,3.77,9.86,-5.13,-8.29,-1.47,9.86
-0.06,-9.12,3.74,9.85,-5.18,-8.31,-1.49,9.90
-0.05,-9.12,3.76,9.87,-5.15,-8.31,-1.48,9.89
-0.05,-9.11,3.75,9.85,-5.13,-8.30,-1.50,9.88
-0.05,-9.11,3.74,9.85,-5.12,-8.27,-1.49,9.84
-0.07,-9.11,3.74,9.85,-5.10,-8.29,-1.46,9.84
-0.03,-9.11,3.73,9.85,-5.15,-8.26,-1.46,9.85
-0.07,-9.11,3.75,9.85,-5.12,-8.28,-1.47,9.84
-0.04,-9.12,3.75,9.86,-5.13,-8.29,-1.49,9.86
-0.01,-9.10,3.77,9.85,-5.13,-8.32,-1.49,9.89
-0.03,-9.11,3.77,9.86,-5.13,-8.30,-1.49,9.87
-0.01,-9.10,3.77,9.85,-5.11,-8.33,-1.48,9.89
-0.04,-9.11,3.78,9.87,-5.09,-8.31,-1.48,9.86
-0.03,-9.10,3.77,9.86,-5.13,-8.32,-1.50,9.89
-0.02,-9.11,3.74,9.85,-5.08,-8.31,-1.49,9.85
-0.03,-9.12,3.77,9.87,-5.12,-8.33,-1.50,9.89
-0.01,-9.09,3.77,9.84,-5.12,-8.29,-1.50,9.86
-0.03,-9.11,3.78,9.87,-5.10,-8.30,-1.48,9.85
-0.03,-9.12,3.75,9.86,-5.11,-8.27,-1.46,9.83
-0.03,-9.09,3.77,9.84,-5.11,-8.28,-1.47,9.84
-0.05,-9.10,3.76,9.85,-5.13,-8.30,-1.47,9.86
-0.05,-9.09,3.74,9.83,-5.17,-8.29,-1.46,9.88
-0.06,-9.10,3.76,9.85,-5.15,-8.27,-1.47,9.85
-0.02,-9.12,3.75,9.86,-5.16,-8.29,-1.50,9.88
-0.04,-9.14,3.76,9.88,-5.13,-8.27,-1.50,9.85
-0.04,-9.10,3.74,9.84,-5.14,-8.29,-1.49,9.87
-0.02,-9.12,3.73,9.85,-5.16,-8.27,-1.52,9.86
-0.02,-9.11,3.75,9.85,-5.15,-8.27,-1.49,9.85
-0.05,-9.10,3.72,9.83,-5.13,-8.29,-1.50,9.86
-0.04,-9.13,3.74,9.87,-5.14,-8.28,-1.50,9.87
-0.03,-9.10,3.74,9.84,-5.15,-8.28,-1.48,9.86
-0.02,-9.11,3.76,9.85,-5.14,-8.29,-1.53,9.88
-0.02,-9.10,3.74,9.84,-5.13,-8.30,-1.51,9.88
-0.03,-9.06,3.77,9.81,-5.11,-8.29,-1.47,9.85
-0.03,-9.13,3.77,9.88,-5.12,-8.30,-1.47,9.86
-0.04,-9.12,3.78,9.87,-5.12,-8.29,-1.48,9.86
-0.02,-9.12,3.76,9.86,-5.16,-8.28,-1.42,9.85
-0.05,-9.08,3.77,9.83,-5.11,-8.32,-1.46,9.87
-0.04,-9.09,3.79,9.85,-5.13,-8.30,-1.47,9.87
-0.03,-9.08,3.76,9.83,-5.13,-8.28,-1.51,9.86
-0.03,-9.10,3.78,9.86,-5.14,-8.29,-1.44,9.85
-0.02,-9.12,3.78,9.87,-5.13,-8.31,-1.48,9.87
-0.04,-9.10,3.78,9.85,-5.11,-8.32,-1.51,9.88
-0.05,-9.10,3.77,9.85,-5.13,-8.31,-1.48,9.88
-0.04,-9.12,3.75,9.86,-5.12,-8.30,-1.46,9.86
-0.05,-9.09,3.76,9.84,-5.13,-8.31,-1.50,9.88
-0.06,-9.12,3.76,9.86,-5.16,-8.30,-1.47,9.88
-0.03,-9.12,3.74,9.86,-5.14,-8.28,-1.48,9.86
-0.08,-9.08,3.74,9.82,-5.15,-8.30,-1.48,9.88
-0.04,-9.11,3.75,9.85,-5.15,-8.30,-1.52,9.89
-0.06,-9.11,3.74,9.85,-5.12,-8.29,-1.48,9.86
-0.03,-9.12,3.75,9.86,-5.14,-8.28,-1.47,9.86
-0.06,-9.12,3.75,9.86,-5.14,-8.31,-1.47,9.88
-0.05,-9.09,3.73,9.82,-5.13,-8.29,-1.46,9.86
-0.06,-9.12,3.75,9.86,-5.14,-8.31,-1.45,9.88
-0.05,-9.12,3.76,9.86,-5.13,-8.29,-1.49,9.86
-0.04,-9.12,3.76,9.86,-5.13,-8.30,-1.49,9.87
-0.05,-9.11,3.79,9.86,-5.12,-8.28,-1.48,9.85
-0.05,-9.10,3.79,9.86,-5.13,-8.29,-1.48,9.87
-0.02,-9.12,3.78,9.87,-5.13,-8.27,-1.47,9.85
-0.04,-9.10,3.77,9.85,-5.12,-8.31,-1.50,9.88
-0.02,-9.10,3.78,9.85,-5.12,-8.30,-1.45,9.86
-0.03,-9.11,3.79,9.87,-5.08,-8.32,-1.51,9.87
-0.03,-9.09,3.76,9.84,-5.11,-8.29,-1.47,9.85
-0.04,-9.11,3.79,9.87,-5.14,-8.31,-1.48,9.88
-0.06,-9.10,3.78,9.85,-5.16,-8.31,-1.50,9.90
-0.05,-9.12,3.76,9.86,-5.12,-8.29,-1.52,9.86
-0.08,-9.11,3.77,9.86,-5.15,-8.30,-1.46,9.87
-0.04,-9.12,3.78,9.87,-5.14,-8.32,-1.46,9.89
-0.06,-9.10,3.76,9.85,-5.14,-8.25,-1.50,9.84
-0.07,-9.12,3.76,9.87,-5.16,-8.28,-1.50,9.87
-0.04,-9.11,3.74,9.85,-5.15,-8.27,-1.49,9.86
-0.04,-9.11,3.74,9.85,-5.13,-8.27,-1.47,9.84
-0.03,-9.12,3.75,9.86,-5.14,-8.31,-1.51,9.89
-0.04,-9.13,3.77,9.88,-5.16,-8.29,-1.47,9.87
-0.03,-9.12,3.76,9.86,-5.11,-8.30,-1.47,9.86
-0.00,-9.11,3.77,9.86,-5.16,-8.31,-1.49,9.89
-0.00,-9.12,3.75,9.86,-5.11,-8.31,-1.49,9.86
-0.03,-9.13,3.76,9.87,-5.11,-8.29,-1.49,9.85
-0.00,-9.14,3.75,9.88,-5.13,-8.29,-1.50,9.86
-0.03,-9.10,3.74,9.84,-5.15,-8.29,-1.47,9.87
-0.04,-9.08,3.77,9.84,-5.14,-8.30,-1.48,9.87
-0.04,-9.12,3.76,9.86,-5.15,-8.30,-1.47,9.88
-0.06,-9.11,3.76,9.86,-5.16,-8.28,-1.46,9.87
-0.03,-9.10,3.74,9.84,-5.13,-8.29,-1.47,9.86
-0.05,-9.09,3.76,9.83,-5.17,-8.32,-1.45,9.90
-0.06,-9.11,3.78,9.87,-5.14,-8.30,-1.48,9.88
-0.04,-9.10,3.76,9.85,-5.15,-8.29,-1.49,9.87
-0.01,-9.08,3.77,9.83,-5.10,-8.30,-1.48,9.85
-0.02,-9.12,3.79,9.88,-5.12,-8.27,-1.48,9.84
-0.01,-9.11,3.79,9.86,-5.11,-8.30,-1.50,9.86
-0.04,-9.10,3.79,9.86,-5.13,-8.30,-1.50,9.88
-0.00,-9.10,3.75,9.84,-5.12,-8.30,-1.47,9.86
-0.03,-9.10,3.75,9.85,-5.16,-8.28,-1.49,9.87
-0.03,-9.11,3.75,9.85,-5.12,-8.32,-1.49,9.88
-0.03,-9.11,3.75,9.85,-5.14,-8.30,-1.46,9.87
-0.04,-9.09,3.77,9.84,-5.18,-8.29,-1.49,9.89
-0.04,-9.11,3.77,9.86,-5.11,-8.29,-1.45,9.84
-0.03,-9.09,3.74,9.83,-5.14,-8.29,-1.47,9.87
-0.07,-9.10,3.75,9.84,-5.13,-8.27,-1.46,9.84
-0.04,-9.11,3.73,9.85,-5.16,-8.26,-1.51,9.86
-0.05,-9.13,3.76,9.87,-5.16,-8.26,-1.48,9.85
-0.05,-9.11,3.76,9.86,-5.14,-8.30,-1.46,9.87
-0.03,-9.13,3.76,9.88,-5.16,-8.31,-1.49,9.89
-0.06,-9.10,3.76,9.84,-5.14,-8.29,-1.50,9.86
-0.01,-9.09,3.74,9.83,-5.11,-8.30,-1.52,9.86
-0.03,-9.12,3.77,9.86,-5.11,-8.30,-1.48,9.86
-0.03,-9.12,3.75,9.86,-5.14,-8.28,-1.51,9.86
-0.04,-9.12,3.76,9.86,-5.13,-8.26,-1.50,9.84
-0.02,-9.10,3.73,9.84,-5.14,-8.27,-1.53,9.86
-0.02,-9.10,3.77,9.85,-5.16,-8.29,-1.47,9.87
-0.03,-9.10,3.77,9.84,-5.15,-8.30,-1.47,9.88
-0.05,-9.13,3.75,9.87,-5.15,-8.32,-1.46,9.89
-0.03,-9.10,3.77,9.85,-5.14,-8.30,-1.50,9.88
-0.03,-9.10,3.77,9.85,-5.14,-8.28,-1.45,9.86
-0.03,-9.10,3.76,9.85,-5.13,-8.31,-1.49,9.88
-0.02,-9.12,3.79,9.87,-5.12,-8.30,-1.48,9.86
-0.03,-9.12,3.76,9.86,-5.15,-8.32,-1.49,9.89
-0.05,-9.11,3.77,9.86,-5.15,-8.33,-1.48,9.90
-0.03,-9.10,3.78,9.85,-5.16,-8.30,-1.49,9.89
-0.05,-9.09,3.76,9.84,-5.15,-8.29,-1.48,9.87
-0.07,-9.09,3.77,9.84,-5.16,-8.30,-1.50,9.88
-0.04,-9.12,3.78,9.87,-5.15,-8.29,-1.47,9.86
-0.05,-9.08,3.77,9.83,-5.15,-8.27,-1.46,9.86
-0.03,-9.13,3.76,9.87,-5.12,-8.29,-1.49,9.86
-0.02,-9.15,3.73,9.88,-5.14,-8.29,-1.48,9.87
-0.02,-9.12,3.77,9.87,-5.15,-8.29,-1.49,9.87
-0.02,-9.11,3.75,9.85,-5.14,-8.28,-1.47,9.85
-0.02,-9.10,3.75,9.84,-5.12,-8.30,-1.49,9.87
-0.03,-9.10,3.73,9.83,-5.15,-8.31,-1.50,9.89
-0.02,-9.13,3.76,9.87,-5.14,-8.30,-1.49,9.88
-0.02,-9.11,3.77,9.86,-5.16,-8.30,-1.52,9.89
-0.04,-9.10,3.76,9.85,-5.15,-8.28,-1.48,9.86
-0.06,-9.12,3.75,9.86,-5.14,-8.29,-1.47,9.87
-0.05,-9.11,3.79,9.87,-5.15,-8.31,-1.46,9.89
-0.03,-9.10,3.75,9.84,-5.15,-8.29,-1.43,9.87
-0.05,-9.11,3.76,9.86,-5.14,-8.27,-1.48,9.85
-0.02,-9.10,3.76,9.85,-5.15,-8.28,-1.48,9.86
-0.04,-9.12,3.77,9.86,-5.16,-8.27,-1.47,9.86
-0.05,-9.12,3.75,9.86,-5.14,-8.26,-1.48,9.85
0.00,-9.10,3.76,9.85,-5.11,-8.31,-1.47,9.87
-0.03,-9.09,3.76,9.84,-5.10,-8.31,-1.48,9.86
-0.01,-9.10,3.76,9.84,-5.11,-8.32,-1.47,9.87
-0.02,-9.10,3.77,9.85,-5.12,-8.29,-1.50,9.86
-0.04,-9.11,3.77,9.86,-5.11,-8.29,-1.51,9.86
-0.03,-9.09,3.77,9.84,-5.14,-8.29,-1.51,9.87
-0.03,-9.10,3.76,9.85,-5.13,-8.32,-1.48,9.88
-0.02,-9.11,3.76,9.85,-5.15,-8.30,-1.48,9.88
-0.05,-9.11,3.76,9.86,-5.16,-8.34,-1.49,9.92
-0.03,-9.12,3.77,9.87,-5.16,-8.27,-1.45,9.86
-0.04,-9.12,3.77,9.86,-5.17,-8.27,-1.46,9.86
-0.03,-9.12,3.78,9.87,-5.14,-8.29,-1.46,9.87
-0.03,-9.11,3.76,9.86,-5.15,-8.28,-1.48,9.86
-0.06,-9.12,3.75,9.86,-5.17,-8.28,-1.50,9.87
-0.05,-9.08,3.77,9.83,-5.15,-8.28,-1.49,9.87
-0.04,-9.13,3.77,9.87,-5.16,-8.28,-1.48,9.87
-0.04,-9.09,3.75,9.84,-5.15,-8.27,-1.46,9.85
-0.01,-9.14,3.78,9.89,-5.13,-8.29,-1.51,9.86
-0.01,-9.12,3.75,9.86,-5.14,-8.29,-1.48,9.87
-0.03,-9.10,3.75,9.84,-5.17,-8.33,-1.47,9.91
-0.02,-9.10,3.78,9.86,-5.13,-8.31,-1.49,9.88
-0.05,-9.12,3.76,9.86,-5.15,-8.29,-1.48,9.87
-0.07,-9.11,3.75,9.85,-5.15,-8.30,-1.48,9.88
-0.04,-9.10,3.76,9.85,-5.19,-8.27,-1.47,9.88
-0.05,-9.12,3.77,9.87,-5.14,-8.26,-1.46,9.84
-0.02,-9.11,3.78,9.86,-5.16,-8.27,-1.45,9.85
-0.08,-9.10,3.76,9.85,-5.14,-8.26,-1.49,9.85
-0.01,-9.12,3.76,9.86,-5.17,-8.28,-1.46,9.88
-0.03,-9.11,3.76,9.86,-5.17,-8.27,-1.47,9.86
-0.03,-9.10,3.78,9.86,-5.16,-8.32,-1.49,9.90
-0.03,-9.09,3.78,9.85,-5.14,-8.30,-1.51,9.88
-0.04,-9.10,3.75,9.84,-5.16,-8.29,-1.46,9.87
-0.01,-9.09,3.76,9.84,-5.14,-8.27,-1.50,9.85
-0.04,-9.10,3.76,9.85,-5.16,-8.28,-1.48,9.87
-0.03,-9.10,3.78,9.86,-5.14,-8.26,-1.48,9.84
-0.06,-9.13,3.77,9.87,-5.16,-8.29,-1.48,9.87
-0.05,-9.10,3.76,9.85,-5.14,-8.29,-1.46,9.87
-0.05,-9.08,3.77,9.83,-5.14,-8.30,-1.46,9.88
-0.05,-9.11,3.79,9.87,-5.15,-8.29,-1.49,9.88
-0.05,-9.12,3.75,9.86,-5.16,-8.29,-1.43,9.87
-0.06,-9.10,3.77,9.85,-5.18,-8.31,-1.49,9.90
-0.05,-9.10,3.78,9.85,-5.15,-8.30,-1.47,9.88
-0.03,-9.09,3.75,9.84,-5.17,-8.31,-1.49,9.89
-0.03,-9.13,3.75,9.86,-5.15,-8.26,-1.50,9.85
-0.05,-9.10,3.77,9.85,-5.13,-8.28,-1.49,9.85
-0.07,-9.10,3.76,9.85,-5.13,-8.27,-1.47,9.84
-0.04,-9.11,3.76,9.86,-5.16,-8.28,-1.45,9.87
-0.03,-9.10,3.78,9.86,-5.15,-8.29,-1.48,9.87
0.00,-9.11,3.75,9.86,-5.13,-8.29,-1.51,9.86
-0.02,-9.10,3.79,9.86,-5.16,-8.27,-1.46,9.85
0.00,-9.12,3.77,9.87,-5.14,-8.28,-1.49,9.85
-0.05,-9.13,3.77,9.88,-5.13,-8.27,-1.47,9.84
-0.04,-9.09,3.76,9.83,-5.15,-8.28,-1.49,9.86
-0.05,-9.10,3.78,9.85,-5.17,-8.30,-1.49,9.90
-0.04,-9.11,3.78,9.86,-5.16,-8.26,-1.46,9.85
-0.08,-9.10,3.76,9.85,-5.15,-8.30,-1.45,9.88
-0.05,-9.13,3.77,9.88,-5.17,-8.28,-1.47,9.87
-0.07,-9.09,3.77,9.85,-5.21,-8.27,-1.47,9.88
-0.07,-9.10,3.79,9.86,-5.14,-8.28,-1.47,9.86
-0.03,-9.10,3.78,9.86,-5.16,-8.30,-1.50,9.88
-0.03,-9.10,3.77,9.85,-5.13,-8.30,-1.48,9.87
-0.04,-9.10,3.79,9.85,-5.16,-8.30,-1.46,9.88
-0.03,-9.10,3.77,9.85,-5.15,-8.28,-1.47,9.86
-0.03,-9.11,3.78,9.86,-5.16,-8.28,-1.48,9.87
-0.03,-9.11,3.76,9.86,-5.15,-8.26,-1.48,9.85
-0.01,-9.12,3.76,9.86,-5.16,-8.29,-1.48,9.88
-0.04,-9.12,3.77,9.86,-5.13,-8.28,-1.51,9.86
-0.05,-9.10,3.76,9.84,-5.14,-8.30,-1.47,9.87
-0.05,-9.11,3.74,9.85,-5.15,-8.30,-1.48,9.88
-0.02,-9.09,3.77,9.84,-5.16,-8.30,-1.47,9.89
-0.04,-9.12,3.78,9.87,-5.20,-8.26,-1.47,9.86
-0.06,-9.12,3.77,9.87,-5.20,-8.26,-1.45,9.87
-0.07,-9.09,3.78,9.85,-5.17,-8.27,-1.46,9.86
-0.03,-9.09,3.76,9.83,-5.17,-8.25,-1.48,9.85
-0.04,-9.13,3.75,9.87,-5.15,-8.28,-1.52,9.87
-0.07,-9.12,3.75,9.87,-5.17,-8.27,-1.45,9.86
-0.03,-9.11,3.75,9.85,-5.15,-8.28,-1.47,9.86
-0.04,-9.09,3.77,9.84,-5.17,-8.28,-1.48,9.87
-0.03,-9.09,3.75,9.83,-5.20,-8.31,-1.54,9.92
-0.02,-9.12,3.77,9.87,-5.16,-8.26,-1.48,9.85
-0.02,-9.12,3.76,9.86,-5.19,-8.26,-1.50,9.87
-0.02,-9.13,3.76,9.88,-5.19,-8.26,-1.50,9.87
-0.03,-9.12,3.76,9.86,-5.20,-8.25,-1.47,9.86
-0.05,-9.12,3.77,9.87,-5.15,-8.31,-1.46,9.88
-0.05,-9.10,3.78,9.85,-5.18,-8.27,-1.48,9.87
-0.03,-9.07,3.77,9.83,-5.17,-8.26,-1.45,9.86
-0.02,-9.07,3.75,9.81,-5.14,-8.26,-1.46,9.84
-0.03,-9.12,3.77,9.87,-5.16,-8.22,-1.48,9.82
-0.04,-9.12,3.77,9.86,-5.17,-8.27,-1.44,9.86
-0.03,-9.12,3.76,9.86,-5.16,-8.30,-1.47,9.88
-0.02,-9.09,3.78,9.84,-5.16,-8.30,-1.48,9.89
-0.02,-9.09,3.76,9.84,-5.17,-8.29,-1.48,9.88
-0.01,-9.11,3.77,9.86,-5.15,-8.31,-1.49,9.89
-0.04,-9.11,3.79,9.87,-5.18,-8.26,-1.47,9.86
-0.04,-9.14,3.78,9.89,-5.18,-8.26,-1.47,9.86
-0.03,-9.11,3.77,9.86,-5.19,-8.29,-1.51,9.90
-0.03,-9.10,3.75,9.84,-5.17,-8.27,-1.52,9.87
-0.03,-9.08,3.74,9.82,-5.12,-8.26,-1.47,9.83
-0.03,-9.09,3.76,9.84,-5.16,-8.26,-1.50,9.85
-0.03,-9.11,3.78,9.86,-5.19,-8.26,-1.48,9.87
-0.05,-9.12,3.79,9.87,-5.20,-8.28,-1.47,9.89
-0.04,-9.11,3.76,9.86,-5.17,-8.29,-1.45,9.87
-0.06,-9.09,3.77,9.84,-5.16,-8.29,-1.48,9.87
-0.03,-9.11,3.76,9.85,-5.17,-8.30,-1.48,9.89
-0.05,-9.11,3.78,9.86,-5.18,-8.28,-1.45,9.87
-0.04,-9.10,3.77,9.85,-5.17,-8.27,-1.45,9.86
-0.04,-9.12,3.75,9.86,-5.17,-8.25,-1.44,9.84
-0.06,-9.08,3.76,9.83,-5.18,-8.27,-1.43,9.87
-0.06,-9.13,3.76,9.87,-5.17,-8.26,-1.47,9.85
-0.05,-9.10,3.79,9.86,-5.18,-8.25,-1.46,9.86
-0.06,-9.12,3.77,9.87,-5.20,-8.24,-1.52,9.86
-0.03,-9.11,3.76,9.86,-5.18,-8.30,-1.49,9.90
-0.01,-9.10,3.77,9.85,-5.17,-8.31,-1.49,9.90
-0.02,-9.08,3.76,9.83,-5.18,-8.29,-1.46,9.88
-0.01,-9.10,3.78,9.85,-5.16,-8.27,-1.51,9.87
-0.05,-9.13,3.77,9.88,-5.14,-8.29,-1.48,9.86
0.00,-9.11,3.78,9.87,-5.17,-8.27,-1.48,9.87
-0.02,-9.10,3.77,9.85,-5.14,-8.28,-1.48,9.86
-0.02,-9.12,3.76,9.87,-5.13,-8.30,-1.51,9.87
-0.03,-9.09,3.79,9.85,-5.15,-8.29,-1.48,9.87
-0.05,-9.11,3.77,9.85,-5.18,-8.26,-1.47,9.86
-0.07,-9.11,3.76,9.85,-5.19,-8.27,-1.47,9.87
-0.04,-9.10,3.77,9.85,-5.16,-8.26,-1.43,9.85
-0.07,-9.13,3.75,9.87,-5.19,-8.24,-1.48,9.85
-0.06,-9.09,3.76,9.84,-5.16,-8.27,-1.49,9.86
-0.08,-9.11,3.77,9.86,-5.17,-8.27,-1.47,9.87
-0.02,-9.09,3.78,9.84,-5.18,-8.26,-1.50,9.86
-0.06,-9.10,3.77,9.85,-5.17,-8.27,-1.53,9.87
-0.05,-9.10,3.77,9.85,-5.18,-8.26,-1.45,9.86
-0.06,-9.11,3.77,9.86,-5.18,-8.24,-1.47,9.84
-0.05,-9.11,3.77,9.86,-5.18,-8.27,-1.45,9.87
-0.03,-9.08,3.77,9.84,-5.16,-8.29,-1.50,9.88
-0.02,-9.10,3.77,9.85,-5.17,-8.29,-1.46,9.87
-0.03,-9.11,3.78,9.86,-5.15,-8.26,-1.47,9.85
-0.02,-9.10,3.76,9.85,-5.16,-8.27,-1.47,9.85
-0.05,-9.10,3.77,9.85,-5.18,-8.24,-1.50,9.85
-0.04,-9.09,3.77,9.84,-5.21,-8.26,-1.48,9.88
-0.05,-9.09,3.77,9.85,-5.21,-8.27,-1.49,9.88
-0.06,-9.12,3.77,9.87,-5.16,-8.29,-1.46,9.88
-0.04,-9.10,3.76,9.84,-5.17,-8.28,-1.48,9.88
-0.06,-9.09,3.76,9.84,-5.19,-8.28,-1.47,9.88
-0.03,-9.13,3.78,9.88,-5.20,-8.26,-1.46,9.87
-0.03,-9.10,3.76,9.85,-5.18,-8.26,-1.49,9.86
-0.06,-9.09,3.78,9.84,-5.18,-8.27,-1.50,9.87
-0.04,-9.10,3.78,9.86,-5.19,-8.27,-1.54,9.88
-0.05,-9.11,3.78,9.86,-5.16,-8.26,-1.48,9.85
0.00,-9.11,3.77,9.86,-5.18,-8.26,-1.49,9.86
-0.02,-9.11,3.77,9.86,-5.17,-8.28,-1.47,9.87
-0.03,-9.10,3.76,9.85,-5.18,-8.28,-1.47,9.88
-0.04,-9.10,3.76,9.84,-5.19,-8.29,-1.47,9.89
-0.05,-9.10,3.75,9.85,-5.19,-8.27,-1.50,9.88
-0.05,-9.08,3.77,9.83,-5.18,-8.27,-1.47,9.87
-0.03,-9.09,3.76,9.84,-5.18,-8.26,-1.48,9.86
-0.02,-9.11,3.76,9.85,-5.15,-8.28,-1.52,9.86
-0.04,-9.11,3.81,9.87,-5.18,-8.26,-1.48,9.86
-0.02,-9.08,3.76,9.83,-5.19,-8.26,-1.48,9.86
-0.04,-9.09,3.77,9.84,-5.15,-8.27,-1.48,9.85
-0.03,-9.10,3.78,9.85,-5.15,-8.29,-1.50,9.88
-0.01,-9.13,3.80,9.89,-5.11,-8.33,-1.51,9.89
-0.02,-9.12,3.80,9.88,-5.16,-8.29,-1.49,9.87
-0.03,-9.09,3.82,9.85,-5.19,-8.26,-1.48,9.87
-0.03,-9.09,3.76,9.84,-5.17,-8.27,-1.49,9.86
-0.04,-9.10,3.79,9.86,-5.17,-8.28,-1.46,9.87
-0.05,-9.10,3.76,9.84,-5.17,-8.25,-1.50,9.85
-0.01,-9.10,3.75,9.84,-5.17,-8.27,-1.46,9.86
-0.03,-9.11,3.76,9.86,-5.18,-8.28,-1.50,9.88
-0.04,-9.12,3.76,9.86,-5.18,-8.28,-1.49,9.88
-0.04,-9.11,3.75,9.85,-5.15,-8.28,-1.48,9.86
-0.02,-9.12,3.76,9.87,-5.18,-8.27,-1.53,9.88
-0.03,-9.12,3.75,9.86,-5.22,-8.26,-1.48,9.88
-0.02,-9.11,3.75,9.86,-5.17,-8.22,-1.49,9.83
-0.05,-9.10,3.76,9.85,-5.20,-8.25,-1.46,9.86
-0.03,-9.11,3.77,9.86,-5.19,-8.25,-1.48,9.86
-0.05,-9.10,3.76,9.85,-5.18,-8.26,-1.50,9.86
-0.04,-9.12,3.74,9.86,-5.19,-8.26,-1.47,9.86
-0.08,-9.12,3.76,9.86,-5.19,-8.27,-1.48,9.87
-0.06,-9.10,3.75,9.84,-5.19,-8.26,-1.48,9.86
-0.03,-9.11,3.77,9.86,-5.18,-8.27,-1.46,9.87
-0.03,-9.10,3.78,9.85,-5.18,-8.29,-1.46,9.88
-0.03,-9.08,3.74,9.82,-5.16,-8.25,-1.50,9.84
-0.02,-9.10,3.78,9.85,-5.20,-8.28,-1.48,9.89
0.00,-9.13,3.77,9.88,-5.16,-8.26,-1.48,9.85
-0.02,-9.10,3.80,9.86,-5.17,-8.28,-1.48,9.87
-0.03,-9.11,3.79,9.86,-5.18,-8.29,-1.47,9.88
-0.02,-9.11,3.76,9.86,-5.18,-8.29,-1.48,9.89
-0.03,-9.09,3.80,9.85,-5.16,-8.30,-1.50,9.89
-0.03,-9.10,3.78,9.86,-5.15,-8.28,-1.49,9.86
-0.04,-9.09,3.78,9.85,-5.16,-8.27,-1.48,9.86
-0.02,-9.12,3.76,9.86,-5.17,-8.29,-1.47,9.88
-0.03,-9.13,3.77,9.87,-5.17,-8.29,-1.46,9.88
-0.02,-9.10,3.76,9.85,-5.19,-8.22,-1.49,9.83
-0.05,-9.10,3.76,9.84,-5.17,-8.27,-1.48,9.86
-0.03,-9.12,3.75,9.87,-5.21,-8.26,-1.44,9.87
-0.04,-9.12,3.73,9.85,-5.18,-8.25,-1.44,9.85
-0.06,-9.12,3.76,9.87,-5.18,-8.25,-1.48,9.85
-0.03,-9.13,3.76,9.87,-5.19,-8.27,-1.47,9.88
-0.03,-9.11,3.77,9.86,-5.18,-8.26,-1.44,9.85
-0.05,-9.09,3.76,9.84,-5.15,-8.27,-1.47,9.85
-0.03,-9.12,3.77,9.87,-5.18,-8.26,-1.48,9.87
-0.05,-9.12,3.75,9.86,-5.16,-8.25,-1.51,9.85
-0.02,-9.11,3.79,9.87,-5.19,-8.28,-1.49,9.88
-0.03,-9.10,3.75,9.84,-5.21,-8.26,-1.48,9.87
-0.06,-9.11,3.78,9.86,-5.19,-8.27,-1.47,9.88
-0.04,-9.09,3.77,9.84,-5.19,-8.28,-1.46,9.88
-0.02,-9.07,3.78,9.83,-5.15,-8.30,-1.46,9.88
-0.04,-9.12,3.79,9.87,-5.21,-8.25,-1.47,9.86
-0.03,-9.10,3.77,9.85,-5.19,-8.26,-1.47,9.87
-0.06,-9.10,3.78,9.86,-5.19,-8.27,-1.48,9.88
-0.04,-9.09,3.78,9.85,-5.18,-8.28,-1.43,9.87
-0.02,-9.10,3.78,9.86,-5.18,-8.28,-1.49,9.88
-0.07,-9.08,3.78,9.84,-5.18,-8.32,-1.47,9.91
-0.03,-9.09,3.78,9.85,-5.19,-8.28,-1.49,9.88
-0.01,-9.11,3.76,9.86,-5.19,-8.28,-1.47,9.88
-0.04,-9.10,3.77,9.85,-5.18,-8.26,-1.48,9.86
-0.02,-9.11,3.75,9.85,-5.19,-8.24,-1.49,9.85
-0.03,-9.11,3.76,9.86,-5.19,-8.23,-1.47,9.84
-0.04,-9.09,3.78,9.85,-5.19,-8.26,-1.48,9.87
-0.08,-9.13,3.76,9.87,-5.19,-8.26,-1.49,9.87
-0.05,-9.13,3.76,9.87,-5.17,-8.24,-1.48,9.84
-0.02,-9.11,3.76,9.86,-5.19,-8.26,-1.49,9.87
-0.02,-9.12,3.76,9.86,-5.17,-8.28,-1.49,9.88
-0.01,-9.11,3.79,9.86,-5.19,-8.29,-1.49,9.90
-0.03,-9.10,3.77,9.85,-5.19,-8.30,-1.50,9.90
-0.03,-9.12,3.76,9.86,-5.18,-8.28,-1.46,9.88
-0.03,-9.08,3.77,9.83,-5.23,-8.25,-1.49,9.88
-0.04,-9.10,3.79,9.85,-5.18,-8.25,-1.49,9.86
-0.03,-9.10,3.78,9.86,-5.18,-8.27,-1.48,9.87
-0.06,-9.10,3.78,9.86,-5.17,-8.25,-1.45,9.85
-0.06,-9.09,3.79,9.85,-5.16,-8.26,-1.49,9.86
-0.06,-9.10,3.79,9.86,-5.17,-8.26,-1.45,9.85
-0.02,-9.10,3.79,9.86,-5.18,-8.26,-1.45,9.86
-0.03,-9.09,3.77,9.84,-5.19,-8.25,-1.50,9.86
-0.04,-9.12,3.78,9.87,-5.13,-8.28,-1.47,9.85
-0.03,-9.11,3.77,9.86,-5.20,-8.27,-1.50,9.88
-0.03,-9.13,3.76,9.87,-5.15,-8.28,-1.48,9.86
-0.04,-9.11,3.77,9.86,-5.20,-8.29,-1.49,9.90
0.01,-9.08,3.77,9.84,-5.21,-8.27,-1.51,9.89
-0.05,-9.13,3.76,9.87,-5.18,-8.24,-1.48,9.85
-0.03,-9.11,3.77,9.86,-5.16,-8.27,-1.47,9.86
-0.05,-9.11,3.76,9.86,-5.16,-8.29,-1.46,9.88
-0.03,-9.12,3.77,9.87,-5.19,-8.25,-1.48,9.86
-0.02,-9.10,3.78,9.86,-5.16,-8.27,-1.48,9.86
-0.03,-9.10,3.78,9.86,-5.18,-8.27,-1.51,9.88
-0.04,-9.13,3.76,9.88,-5.21,-8.27,-1.49,9.88
-0.06,-9.07,3.76,9.82,-5.20,-8.25,-1.44,9.86
-0.04,-9.14,3.76,9.88,-5.16,-8.27,-1.51,9.87
-0.06,-9.11,3.76,9.86,-5.20,-8.26,-1.46,9.87
-0.06,-9.09,3.75,9.83,-5.16,-8.27,-1.49,9.86
-0.02,-9.10,3.75,9.84,-5.16,-8.28,-1.47,9.86
-0.04,-9.11,3.79,9.87,-5.17,-8.25,-1.47,9.85
-0.03,-9.07,3.75,9.81,-5.14,-8.29,-1.44,9.86
-0.03,-9.08,3.77,9.83,-5.17,-8.28,-1.46,9.87
-0.05,-9.10,3.79,9.86,-5.17,-8.23,-1.48,9.83
-0.02,-9.11,3.76,9.85,-5.21,-8.28,-1.50,9.90
-0.03,-9.10,3.77,9.85,-5.18,-8.27,-1.49,9.87
-0.06,-9.09,3.79,9.85,-5.19,-8.29,-1.49,9.89
-0.03,-9.10,3.78,9.85,-5.19,-8.29,-1.48,9.89
-0.03,-9.10,3.76,9.85,-5.17,-8.28,-1.48,9.88
-0.03,-9.10,3.78,9.86,-5.17,-8.25,-1.47,9.85
-0.06,-9.09,3.77,9.84,-5.19,-8.28,-1.49,9.88
-0.04,-9.10,3.78,9.86,-5.18,-8.26,-1.49,9.86
-0.04,-9.12,3.78,9.87,-5.21,-8.26,-1.47,9.88
-0.04,-9.10,3.75,9.84,-5.21,-8.25,-1.51,9.87
-0.05,-9.09,3.76,9.84,-5.16,-8.25,-1.47,9.84
-0.05,-9.13,3.77,9.87,-5.19,-8.25,-1.47,9.86
-0.04,-9.13,3.77,9.87,-5.20,-8.29,-1.49,9.90
-0.04,-9.11,3.78,9.87,-5.19,-8.28,-1.46,9.88
-0.06,-9.11,3.79,9.87,-5.15,-8.28,-1.51,9.87
-0.03,-9.09,3.78,9.85,-5.16,-8.24,-1.46,9.83
-0.05,-9.11,3.76,9.85,-5.22,-8.24,-1.46,9.86
-0.04,-9.10,3.77,9.84,-5.18,-8.25,-1.46,9.85
-0.03,-9.11,3.77,9.86,-5.22,-8.26,-1.49,9.88
-0.04,-9.09,3.77,9.84,-5.21,-8.24,-1.50,9.86
-0.06,-9.11,3.75,9.85,-5.20,-8.26,-1.47,9.87
-0.05,-9.08,3.79,9.83,-5.21,-8.28,-1.46,9.89
-0.05,-9.07,3.76,9.82,-5.19,-8.26,-1.52,9.87
-0.01,-9.10,3.75,9.85,-5.17,-8.29,-1.48,9.88
-0.04,-9.11,3.79,9.86,-5.19,-8.26,-1.48,9.87
-0.05,-9.10,3.77,9.86,-5.19,-8.27,-1.47,9.87
-0.02,-9.11,3.78,9.87,-5.19,-8.27,-1.44,9.87
-0.03,-9.12,3.79,9.88,-5.20,-8.25,-1.50,9.87
-0.04,-9.10,3.77,9.85,-5.18,-8.26,-1.49,9.86
-0.03,-9.12,3.78,9.87,-5.19,-8.27,-1.46,9.88
-0.04,-9.08,3.78,9.84,-5.18,-8.27,-1.46,9.87
-0.04,-9.10,3.76,9.84,-5.21,-8.25,-1.44,9.86
-0.05,-9.11,3.78,9.86,-5.19,-8.27,-1.48,9.87
-0.04,-9.11,3.77,9.86,-5.18,-8.24,-1.46,9.85
-0.03,-9.10,3.77,9.85,-5.18,-8.28,-1.48,9.88
-0.03,-9.11,3.76,9.86,-5.21,-8.25,-1.48,9.87
-0.03,-9.10,3.77,9.85,-5.19,-8.23,-1.47,9.84
-0.03,-9.10,3.76,9.85,-5.22,-8.27,-1.49,9.89
-0.02,-9.10,3.78,9.86,-5.16,-8.29,-1.50,9.88
-0.04,-9.11,3.76,9.85,-5.17,-8.23,-1.49,9.83
-0.03,-9.12,3.75,9.86,-5.17,-8.27,-1.50,9.87
-0.03,-9.11,3.76,9.85,-5.19,-8.25,-1.46,9.85
-0.05,-9.11,3.76,9.86,-5.20,-8.25,-1.49,9.87
-0.02,-9.11,3.78,9.86,-5.20,-8.27,-1.46,9.87
-0.04,-9.10,3.78,9.86,-5.20,-8.25,-1.50,9.86
-0.04,-9.13,3.78,9.88,-5.22,-8.27,-1.49,9.89
-0.07,-9.11,3.78,9.87,-5.20,-8.22,-1.47,9.84
-0.07,-9.11,3.79,9.87,-5.19,-8.27,-1.46,9.87
-0.04,-9.11,3.77,9.86,-5.20,-8.23,-1.47,9.85
-0.05,-9.11,3.79,9.87,-5.19,-8.26,-1.47,9.87
-0.06,-9.12,3.78,9.87,-5.15,-8.29,-1.46,9.87
-0.03,-9.12,3.80,9.88,-5.16,-8.27,-1.48,9.86
-0.03,-9.12,3.79,9.87,-5.18,-8.26,-1.47,9.86
-0.03,-9.11,3.77,9.86,-5.16,-8.29,-1.50,9.88
-0.01,-9.11,3.77,9.86,-5.18,-8.27,-1.49,9.87
-0.03,-9.08,3.77,9.83,-5.19,-8.26,-1.48,9.87
-0.03,-9.09,3.78,9.84,-5.16,-8.26,-1.51,9.86
-0.00,-9.11,3.75,9.85,-5.18,-8.25,-1.47,9.85
-0.03,-9.12,3.76,9.87,-5.22,-8.25,-1.49,9.88
-0.06,-9.12,3.76,9.86,-5.20,-8.25,-1.47,9.86
-0.05,-9.11,3.78,9.86,-5.21,-8.26,-1.49,9.88
-0.06,-9.11,3.76,9.86,-5.18,-8.26,-1.51,9.86
-0.06,-9.10,3.77,9.85,-5.21,-8.26,-1.49,9.88
-0.04,-9.08,3.77,9.83,-5.19,-8.25,-1.46,9.86
-0.05,-9.11,3.78,9.87,-5.20,-8.24,-1.44,9.85
-0.07,-9.07,3.75,9.82,-5.20,-8.24,-1.47,9.85
-0.04,-9.12,3.76,9.87,-5.17,-8.24,-1.47,9.84
-0.06,-9.11,3.77,9.86,-5.19,-8.26,-1.45,9.86
-0.03,-9.09,3.79,9.85,-5.20,-8.26,-1.47,9.87
-0.00,-9.09,3.79,9.85,-5.18,-8.25,-1.48,9.85
-0.04,-9.08,3.77,9.83,-5.17,-8.28,-1.51,9.88
-0.05,-9.10,3.79,9.86,-5.18,-8.26,-1.45,9.86
-0.03,-9.10,3.77,9.85,-5.17,-8.25,-1.48,9.85
-0.05,-9.10,3.77,9.85,-5.18,-8.23,-1.49,9.84
-0.02,-9.11,3.78,9.86,-5.19,-8.28,-1.47,9.88
-0.02,-9.09,3.78,9.84,-5.16,-8.24,-1.48,9.83
-0.04,-9.10,3.76,9.84,-5.20,-8.24,-1.51,9.86
-0.03,-9.09,3.81,9.86,-5.20,-8.26,-1.46,9.87
-0.02,-9.12,3.77,9.86,-5.19,-8.24,-1.48,9.85
-0.03,-9.09,3.78,9.85,-5.18,-8.26,-1.49,9.86
-0.04,-9.11,3.80,9.87,-5.22,-8.27,-1.51,9.89
-0.03,-9.11,3.78,9.86,-5.19,-8.27,-1.46,9.87
-0.06,-9.11,3.77,9.86,-5.20,-8.25,-1.47,9.86
-0.04,-9.09,3.78,9.85,-5.21,-8.25,-1.44,9.86
-0.04,-9.10,3.76,9.85,-5.19,-8.26,-1.45,9.87
-0.03,-9.10,3.76,9.85,-5.19,-8.25,-1.49,9.86
-0.03,-9.10,3.75,9.85,-5.19,-8.24,-1.48,9.85
-0.03,-9.13,3.76,9.87,-5.20,-8.23,-1.47,9.84
-0.03,-9.09,3.77,9.85,-5.20,-8.25,-1.50,9.87
-0.03,-9.11,3.78,9.86,-5.19,-8.26,-1.47,9.87
-0.03,-9.09,3.77,9.84,-5.18,-8.26,-1.46,9.85
-0.02,-9.11,3.77,9.86,-5.19,-8.28,-1.48,9.88
-0.03,-9.09,3.78,9.84,-5.21,-8.29,-1.47,9.90
-0.05,-9.10,3.77,9.85,-5.17,-8.28,-1.50,9.88
-0.03,-9.12,3.76,9.86,-5.19,-8.26,-1.49,9.87
-0.03,-9.09,3.76,9.84,-5.18,-8.26,-1.50,9.86
-0.03,-9.09,3.78,9.84,-5.18,-8.29,-1.45,9.88
-0.03,-9.07,3.78,9.83,-5.18,-8.20,-1.51,9.82
-0.04,-9.10,3.80,9.86,-5.21,-8.25,-1.50,9.87
-0.07,-9.09,3.78,9.85,-5.21,-8.25,-1.47,9.87
-0.03,-9.09,3.79,9.84,-5.20,-8.27,-1.44,9.88
-0.07,-9.12,3.78,9.87,-5.20,-8.28,-1.42,9.88
-0.04,-9.08,3.77,9.83,-5.22,-8.22,-1.44,9.84
-0.06,-9.11,3.78,9.86,-5.20,-8.26,-1.49,9.88
-0.05,-9.11,3.78,9.86,-5.20,-8.23,-1.46,9.85
-0.03,-9.09,3.76,9.84,-5.21,-8.24,-1.48,9.87
-0.01,-9.09,3.77,9.84,-5.22,-8.28,-1.50,9.90
-0.02,-9.10,3.77,9.85,-5.19,-8.28,-1.51,9.89
-0.00,-9.11,3.77,9.86,-5.20,-8.25,-1.49,9.87
-0.02,-9.08,3.77,9.83,-5.21,-8.26,-1.51,9.88
-0.02,-9.11,3.76,9.86,-5.21,-8.25,-1.48,9.87
-0.04,-9.09,3.76,9.84,-5.19,-8.28,-1.50,9.89
-0.03,-9.10,3.75,9.84,-5.20,-8.28,-1.48,9.89
-0.05,-9.10,3.78,9.86,-5.21,-8.23,-1.47,9.86
-0.06,-9.10,3.77,9.85,-5.24,-8.25,-1.45,9.88
-0.05,-9.07,3.77,9.83,-5.21,-8.26,-1.47,9.87
-0.04,-9.12,3.75,9.86,-5.23,-8.25,-1.50,9.89
-0.08,-9.10,3.80,9.86,-5.23,-8.24,-1.46,9.87
-0.05,-9.11,3.79,9.87,-5.19,-8.26,-1.44,9.86
-0.03,-9.10,3.77,9.86,-5.22,-8.27,-1.47,9.89
-0.04,-9.10,3.79,9.86,-5.21,-8.23,-1.45,9.85
-0.03,-9.08,3.77,9.83,-5.17,-8.26,-1.48,9.86
-0.04,-9.10,3.76,9.85,-5.20,-8.26,-1.48,9.87
-0.01,-9.09,3.77,9.84,-5.17,-8.27,-1.47,9.86
-0.02,-9.12,3.80,9.88,-5.17,-8.26,-1.47,9.85
-0.03,-9.09,3.80,9.85,-5.19,-8.27,-1.50,9.88
-0.01,-9.07,3.77,9.82,-5.16,-8.26,-1.49,9.85
-0.02,-9.08,3.77,9.83,-5.15,-8.25,-1.47,9.83
-0.05,-9.11,3.77,9.86,-5.21,-8.26,-1.45,9.87
-0.02,-9.11,3.78,9.87,-5.19,-8.27,-1.49,9.87
-0.03,-9.08,3.77,9.83,-5.21,-8.26,-1.47,9.88
-0.05,-9.11,3.77,9.86,-5.21,-8.25,-1.49,9.87
-0.04,-9.10,3.76,9.85,-5.20,-8.27,-1.47,9.88
-0.05,-9.11,3.77,9.86,-5.16,-8.25,-1.48,9.84
-0.03,-9.12,3.77,9.87,-5.20,-8.23,-1.48,9.85
-0.06,-9.10,3.75,9.84,-5.21,-8.25,-1.46,9.87
-0.02,-9.12,3.78,9.87,-5.22,-8.22,-1.49,9.85
-0.04,-9.10,3.79,9.85,-5.19,-8.27,-1.50,9.88
-0.06,-9.09,3.76,9.84,-5.18,-8.25,-1.48,9.86
-0.03,-9.10,3.79,9.86,-5.19,-8.25,-1.49,9.86
-0.03,-9.10,3.77,9.85,-5.18,-8.25,-1.52,9.86
-0.03,-9.10,3.79,9.85,-5.19,-8.25,-1.46,9.85
-0.04,-9.10,3.76,9.85,-5.22,-8.24,-1.53,9.87
-0.01,-9.11,3.79,9.87,-5.21,-8.25,-1.48,9.87
-0.06,-9.12,3.76,9.87,-5.21,-8.27,-1.49,9.88
-0.07,-9.10,3.81,9.87,-5.18,-8.28,-1.47,9.88
-0.05,-9.10,3.79,9.86,-5.22,-8.26,-1.47,9.88
-0.02,-9.11,3.79,9.87,-5.19,-8.27,-1.45,9.87
-0.03,-9.08,3.78,9.83,-5.20,-8.25,-1.46,9.86
-0.01,-9.12,3.78,9.87,-5.21,-8.25,-1.45,9.86
-0.03,-9.09,3.78,9.85,-5.21,-8.27,-1.46,9.88
-0.05,-9.11,3.78,9.86,-5.19,-8.26,-1.50,9.87
-0.03,-9.11,3.78,9.86,-5.20,-8.26,-1.46,9.87
-0.02,-9.09,3.77,9.84,-5.21,-8.24,-1.44,9.85
-0.03,-9.10,3.77,9.84,-5.17,-8.24,-1.48,9.84
-0.05,-9.10,3.76,9.85,-5.22,-8.23,-1.47,9.86
-0.05,-9.10,3.77,9.85,-5.20,-8.24,-1.49,9.86
-0.02,-9.11,3.76,9.85,-5.20,-8.24,-1.48,9.85
-0.03,-9.09,3.77,9.84,-5.23,-8.22,-1.45,9.85
-0.05,-9.10,3.79,9.86,-5.23,-8.24,-1.49,9.87
-0.03,-9.10,3.77,9.86,-5.20,-8.27,-1.48,9.88
-0.04,-9.08,3.78,9.83,-5.22,-8.26,-1.48,9.88
-0.04,-9.08,3.77,9.84,-5.22,-8.22,-1.48,9.84
-0.03,-9.12,3.79,9.87,-5.21,-8.24,-1.44,9.86
-0.03,-9.09,3.75,9.83,-5.20,-8.25,-1.47,9.87
-0.01,-9.10,3.80,9.87,-5.20,-8.24,-1.46,9.85
-0.01,-9.12,3.77,9.87,-5.22,-8.26,-1.51,9.88
-0.02,-9.10,3.80,9.86,-5.20,-8.24,-1.46,9.86
-0.04,-9.09,3.80,9.85,-5.20,-8.26,-1.45,9.87
-0.05,-9.10,3.77,9.85,-5.20,-8.26,-1.47,9.88
-0.03,-9.12,3.79,9.88,-5.20,-8.26,-1.47,9.87
-0.04,-9.09,3.78,9.85,-5.20,-8.27,-1.49,9.88
-0.03,-9.10,3.79,9.85,-5.19,-8.26,-1.48,9.86
-0.03,-9.11,3.79,9.87,-5.22,-8.24,-1.47,9.87
-0.01,-9.11,3.77,9.85,-5.19,-8.25,-1.48,9.86
-0.03,-9.10,3.78,9.85,-5.20,-8.26,-1.51,9.87
-0.04,-9.12,3.78,9.87,-5.18,-8.24,-1.47,9.84
-0.05,-9.10,3.79,9.86,-5.19,-8.22,-1.49,9.84
-0.03,-9.12,3.78,9.87,-5.20,-8.26,-1.48,9.87
-0.03,-9.11,3.77,9.86,-5.21,-8.26,-1.48,9.88
-0.06,-9.10,3.78,9.85,-5.19,-8.26,-1.52,9.87
-0.06,-9.11,3.77,9.86,-5.20,-8.25,-1.51,9.87
-0.06,-9.08,3.77,9.83,-5.22,-8.24,-1.47,9.86
-0.03,-9.07,3.77,9.83,-5.21,-8.26,-1.49,9.87
-0.06,-9.10,3.78,9.86,-5.21,-8.24,-1.50,9.86
-0.07,-9.11,3.75,9.85,-5.20,-8.23,-1.50,9.85
-0.04,-9.11,3.77,9.86,-5.21,-8.26,-1.47,9.87
-0.04,-9.10,3.76,9.85,-5.21,-8.25,-1.51,9.87
-0.01,-9.10,3.77,9.85,-5.17,-8.27,-1.49,9.87
-0.04,-9.07,3.77,9.83,-5.19,-8.26,-1.50,9.87
-0.00,-9.10,3.79,9.86,-5.20,-8.24,-1.48,9.85
-0.02,-9.11,3.78,9.87,-5.20,-8.28,-1.46,9.88
-0.03,-9.07,3.79,9.83,-5.16,-8.27,-1.48,9.85
-0.05,-9.11,3.79,9.86,-5.22,-8.22,-1.47,9.85
-0.04,-9.10,3.79,9.86,-5.21,-8.24,-1.46,9.86
-0.03,-9.10,3.77,9.85,-5.17,-8.26,-1.45,9.85
-0.06,-9.10,3.78,9.86,-5.17,-8.23,-1.49,9.84
-0.06,-9.10,3.78,9.85,-5.24,-8.24,-1.45,9.87
-0.04,-9.11,3.79,9.86,-5.22,-8.26,-1.47,9.88
-0.07,-9.10,3.79,9.86,-5.22,-8.24,-1.48,9.86
-0.04,-9.12,3.79,9.88,-5.19,-8.24,-1.46,9.84
-0.03,-9.11,3.78,9.86,-5.19,-8.26,-1.46,9.86
-0.03,-9.11,3.76,9.86,-5.20,-8.26,-1.47,9.87
-0.04,-9.11,3.76,9.85,-5.20,-8.24,-1.49,9.85
-0.05,-9.15,3.77,9.89,-5.19,-8.27,-1.50,9.88
-0.02,-9.11,3.79,9.87,-5.20,-8.24,-1.49,9.85
-0.04,-9.09,3.77,9.85,-5.21,-8.27,-1.45,9.88
-0.01,-9.08,3.77,9.83,-5.22,-8.24,-1.50,9.87
-0.02,-9.11,3.78,9.86,-5.19,-8.25,-1.46,9.86
-0.04,-9.11,3.77,9.85,-5.20,-8.25,-1.49,9.86
-0.06,-9.10,3.77,9.85,-5.22,-8.25,-1.50,9.88
-0.06,-9.11,3.77,9.86,-5.24,-8.25,-1.49,9.88
-0.03,-9.11,3.81,9.87,-5.22,-8.26,-1.45,9.88
-0.04,-9.09,3.76,9.84,-5.22,-8.26,-1.47,9.88
-0.04,-9.10,3.79,9.86,-5.20,-8.23,-1.49,9.85
-0.04,-9.12,3.78,9.88,-5.21,-8.24,-1.46,9.86
-0.03,-9.10,3.79,9.86,-5.21,-8.25,-1.48,9.87
-0.03,-9.09,3.80,9.85,-5.19,-8.27,-1.47,9.87
-0.03,-9.07,3.79,9.83,-5.18,-8.27,-1.48,9.87
-0.07,-9.08,3.76,9.83,-5.18,-8.28,-1.47,9.88
-0.04,-9.09,3.78,9.85,-5.20,-8.25,-1.47,9.86
-0.02,-9.14,3.77,9.89,-5.19,-8.23,-1.48,9.84
-0.01,-9.11,3.77,9.86,-5.19,-8.26,-1.47,9.87
-0.04,-9.10,3.77,9.85,-5.20,-8.26,-1.45,9.87
-0.04,-9.10,3.77,9.85,-5.23,-8.24,-1.47,9.87
-0.04,-9.10,3.78,9.85,-5.22,-8.24,-1.48,9.87
-0.02,-9.08,3.79,9.84,-5.18,-8.23,-1.48,9.84
-0.04,-9.12,3.79,9.87,-5.22,-8.25,-1.48,9.88
-0.03,-9.11,3.78,9.87,-5.18,-8.24,-1.49,9.85
-0.03,-9.08,3.78,9.84,-5.21,-8.25,-1.50,9.87
-0.03,-9.09,3.77,9.84,-5.23,-8.25,-1.49,9.88
-0.04,-9.09,3.76,9.83,-5.19,-8.26,-1.50,9.87
-0.04,-9.09,3.76,9.84,-5.19,-8.24,-1.45,9.85
-0.02,-9.10,3.77,9.85,-5.22,-8.27,-1.49,9.89
-0.05,-9.12,3.77,9.87,-5.19,-8.24,-1.49,9.86
-0.03,-9.08,3.78,9.84,-5.18,-8.26,-1.48,9.86
-0.05,-9.11,3.74,9.85,-5.20,-8.24,-1.49,9.86
-0.06,-9.09,3.79,9.85,-5.18,-8.22,-1.46,9.83
-0.04,-9.11,3.78,9.86,-5.22,-8.22,-1.47,9.85
-0.02,-9.10,3.79,9.86,-5.22,-8.24,-1.47,9.87
-0.04,-9.09,3.78,9.84,-5.23,-8.28,-1.48,9.90
-0.04,-9.10,3.80,9.86,-5.21,-8.26,-1.45,9.87
-0.01,-9.09,3.79,9.85,-5.20,-8.24,-1.45,9.85
-0.03,-9.11,3.78,9.87,-5.20,-8.24,-1.49,9.86
-0.04,-9.11,3.80,9.87,-5.19,-8.24,-1.48,9.85
-0.04,-9.11,3.79,9.86,-5.21,-8.26,-1.51,9.88
-0.05,-9.12,3.77,9.87,-5.21,-8.22,-1.48,9.84
-0.05,-9.10,3.78,9.85,-5.21,-8.23,-1.51,9.86
-0.05,-9.10,3.78,9.85,-5.21,-8.24,-1.51,9.87
-0.02,-9.11,3.76,9.86,-5.22,-8.27,-1.46,9.89
-0.03,-9.10,3.78,9.86,-5.19,-8.26,-1.48,9.87
-0.01,-9.10,3.76,9.85,-5.21,-8.26,-1.47,9.87
-0.04,-9.11,3.76,9.85,-5.21,-8.24,-1.48,9.87
-0.05,-9.12,3.77,9.86,-5.20,-8.23,-1.48,9.85
-0.05,-9.12,3.77,9.86,-5.21,-8.26,-1.51,9.88
-0.04,-9.13,3.76,9.87,-5.21,-8.27,-1.51,9.89
-0.03,-9.12,3.81,9.88,-5.21,-8.24,-1.49,9.86
-0.04,-9.12,3.78,9.87,-5.21,-8.23,-1.49,9.86
-0.05,-9.09,3.77,9.84,-5.21,-8.27,-1.50,9.89
-0.05,-9.10,3.77,9.85,-5.21,-8.29,-1.49,9.91
-0.04,-9.10,3.77,9.85,-5.22,-8.23,-1.48,9.85
-0.07,-9.10,3.78,9.86,-5.19,-8.25,-1.49,9.86
-0.06,-9.11,3.79,9.87,-5.22,-8.26,-1.49,9.88
-0.05,-9.09,3.79,9.85,-5.21,-8.25,-1.49,9.87
-0.04,-9.11,3.78,9.86,-5.18,-8.26,-1.48,9.87
-0.03,-9.12,3.78,9.87,-5.21,-8.27,-1.48,9.89
-0.05,-9.09,3.78,9.85,-5.20,-8.26,-1.50,9.87
-0.02,-9.12,3.78,9.87,-5.21,-8.25,-1.49,9.87
-0.03,-9.09,3.78,9.85,-5.22,-8.24,-1.48,9.87
-0.04,-9.08,3.79,9.84,-5.19,-8.27,-1.48,9.87
-0.04,-9.11,3.77,9.86,-5.21,-8.23,-1.49,9.85
0.01,-9.11,3.80,9.87,-5.20,-8.22,-1.50,9.84
-0.04,-9.11,3.76,9.86,-5.26,-8.23,-1.48,9.88
-0.04,-9.09,3.78,9.85,-5.24,-8.25,-1.47,9.88
-0.03,-9.12,3.79,9.87,-5.22,-8.23,-1.47,9.86
-0.04,-9.09,3.77,9.84,-5.20,-8.25,-1.49,9.87
-0.05,-9.12,3.78,9.87,-5.22,-8.25,-1.47,9.87
-0.04,-9.10,3.79,9.85,-5.22,-8.25,-1.46,9.87
-0.06,-9.09,3.77,9.84,-5.21,-8.24,-1.48,9.86
-0.04,-9.09,3.77,9.84,-5.20,-8.26,-1.47,9.88
-0.03,-9.11,3.77,9.86,-5.20,-8.24,-1.47,9.85
-0.03,-9.10,3.79,9.86,-5.21,-8.25,-1.48,9.87
-0.04,-9.09,3.78,9.84,-5.21,-8.28,-1.47,9.89
-0.01,-9.10,3.77,9.85,-5.20,-8.24,-1.47,9.85
-0.06,-9.10,3.78,9.85,-5.20,-8.24,-1.51,9.86
-0.02,-9.12,3.79,9.88,-5.21,-8.24,-1.50,9.86
-0.02,-9.10,3.77,9.85,-5.21,-8.24,-1.45,9.85
-0.05,-9.10,3.77,9.85,-5.19,-8.25,-1.48,9.86
-0.05,-9.08,3.80,9.85,-5.22,-8.26,-1.48,9.88
-0.02,-9.10,3.75,9.84,-5.19,-8.28,-1.47,9.88
-0.03,-9.09,3.80,9.85,-5.23,-8.24,-1.47,9.87
-0.04,-9.11,3.78,9.86,-5.20,-8.23,-1.47,9.85
-0.03,-9.11,3.80,9.87,-5.22,-8.26,-1.44,9.88
-0.05,-9.11,3.78,9.86,-5.21,-8.25,-1.47,9.86
-0.03,-9.10,3.78,9.86,-5.23,-8.25,-1.46,9.87
-0.03,-9.11,3.78,9.86,-5.21,-8.24,-1.44,9.85
-0.04,-9.11,3.78,9.86,-5.22,-8.24,-1.46,9.87
-0.05,-9.10,3.76,9.84,-5.23,-8.25,-1.49,9.88
-0.01,-9.12,3.79,9.87,-5.19,-8.25,-1.49,9.87
-0.03,-9.12,3.76,9.86,-5.22,-8.25,-1.47,9.87
-0.06,-9.10,3.81,9.86,-5.22,-8.26,-1.48,9.89
-0.03,-9.09,3.76,9.84,-5.21,-8.27,-1.50,9.89
-0.05,-9.10,3.79,9.86,-5.21,-8.23,-1.46,9.85
-0.01,-9.12,3.77,9.86,-5.24,-8.23,-1.50,9.87
-0.04,-9.12,3.78,9.87,-5.21,-8.27,-1.48,9.89
-0.04,-9.11,3.78,9.87,-5.22,-8.25,-1.47,9.87
-0.03,-9.11,3.79,9.87,-5.19,-8.26,-1.46,9.87
-0.05,-9.11,3.81,9.88,-5.22,-8.25,-1.47,9.87
-0.07,-9.11,3.77,9.86,-5.17,-8.28,-1.48,9.87
-0.05,-9.08,3.78,9.83,-5.20,-8.24,-1.47,9.86
-0.04,-9.11,3.79,9.86,-5.20,-8.25,-1.48,9.86
-0.05,-9.09,3.77,9.84,-5.20,-8.22,-1.50,9.84
-0.04,-9.08,3.77,9.84,-5.21,-8.24,-1.49,9.86
-0.01,-9.09,3.79,9.85,-5.22,-8.26,-1.48,9.88
-0.05,-9.10,3.77,9.84,-5.20,-8.24,-1.50,9.86
-0.06,-9.08,3.78,9.84,-5.19,-8.24,-1.50,9.85
-0.03,-9.10,3.77,9.85,-5.19,-8.26,-1.47,9.87
-0.02,-9.11,3.77,9.86,-5.20,-8.23,-1.48,9.85
-0.04,-9.11,3.78,9.87,-5.20,-8.25,-1.46,9.86
-0.05,-9.11,3.79,9.87,-5.20,-8.25,-1.48,9.86
-0.03,-9.10,3.80,9.86,-5.22,-8.25,-1.51,9.88
-0.06,-9.09,3.79,9.85,-5.23,-8.23,-1.47,9.86
-0.03,-9.09,3.78,9.84,-5.21,-8.25,-1.47,9.87
-0.05,-9.10,3.77,9.85,-5.23,-8.24,-1.47,9.87
-0.05,-9.12,3.77,9.86,-5.23,-8.24,-1.45,9.87
-0.06,-9.10,3.76,9.85,-5.24,-8.21,-1.46,9.85
-0.05,-9.08,3.78,9.84,-5.23,-8.22,-1.48,9.86
-0.03,-9.12,3.78,9.87,-5.21,-8.24,-1.49,9.86
-0.01,-9.10,3.78,9.86,-5.18,-8.24,-1.48,9.84
-0.04,-9.11,3.79,9.87,-5.23,-8.25,-1.53,9.89
-0.06,-9.11,3.79,9.86,-5.19,-8.25,-1.46,9.86
-0.03,-9.13,3.79,9.88,-5.22,-8.24,-1.48,9.87
-0.05,-9.08,3.78,9.84,-5.21,-8.27,-1.49,9.89
-0.03,-9.08,3.75,9.83,-5.20,-8.27,-1.48,9.89
-0.02,-9.10,3.78,9.86,-5.19,-8.25,-1.51,9.86
-0.04,-9.07,3.79,9.83,-5.21,-8.24,-1.49,9.86
-0.02,-9.10,3.77,9.85,-5.19,-8.23,-1.49,9.84
-0.02,-9.11,3.77,9.86,-5.22,-8.22,-1.48,9.85
-0.01,-9.10,3.78,9.85,-5.22,-8.25,-1.46,9.87
-0.03,-9.10,3.78,9.86,-5.23,-8.24,-1.47,9.87
-0.05,-9.10,3.80,9.87,-5.24,-8.26,-1.46,9.89
-0.04,-9.10,3.77,9.85,-5.23,-8.26,-1.44,9.88
-0.04,-9.08,3.77,9.83,-5.22,-8.23,-1.47,9.86
-0.05,-9.09,3.77,9.84,-5.23,-8.24,-1.46,9.87
-0.05,-9.09,3.77,9.84,-5.24,-8.24,-1.44,9.87
-0.04,-9.12,3.78,9.87,-5.23,-8.23,-1.42,9.85
-0.05,-9.10,3.76,9.85,-5.23,-8.23,-1.49,9.86
-0.02,-9.11,3.78,9.86,-5.24,-8.24,-1.49,9.87
-0.04,-9.12,3.79,9.87,-5.21,-8.26,-1.49,9.88
-0.01,-9.07,3.80,9.83,-5.20,-8.25,-1.50,9.87
-0.01,-9.10,3.80,9.86,-5.20,-8.26,-1.48,9.87
-0.02,-9.11,3.78,9.87,-5.19,-8.26,-1.49,9.86
-0.00,-9.09,3.78,9.84,-5.18,-8.24,-1.51,9.85
-0.04,-9.09,3.78,9.85,-5.20,-8.23,-1.48,9.85
-0.05,-9.10,3.80,9.86,-5.21,-8.22,-1.51,9.85
-0.05,-9.07,3.81,9.84,-5.21,-8.24,-1.50,9.86
-0.05,-9.10,3.80,9.86,-5.22,-8.24,-1.46,9.86
-0.03,-9.11,3.76,9.85,-5.20,-8.25,-1.48,9.86
-0.07,-9.08,3.79,9.84,-5.22,-8.26,-1.46,9.88
-0.06,-9.12,3.82,9.88,-5.22,-8.28,-1.45,9.89
-0.04,-9.12,3.79,9.87,-5.21,-8.24,-1.44,9.86
-0.06,-9.08,3.79,9.84,-5.24,-8.23,-1.45,9.86
-0.04,-9.09,3.79,9.85,-5.21,-8.24,-1.46,9.86
-0.03,-9.08,3.76,9.83,-5.23,-8.21,-1.46,9.85
-0.03,-9.12,3.78,9.87,-5.21,-8.24,-1.47,9.86
-0.03,-9.11,3.78,9.86,-5.21,-8.26,-1.49,9.88
-0.03,-9.11,3.79,9.87,-5.21,-8.26,-1.50,9.88
-0.04,-9.12,3.77,9.87,-5.21,-8.27,-1.54,9.90
-0.01,-9.09,3.77,9.85,-5.23,-8.24,-1.52,9.88
-0.02,-9.11,3.77,9.86,-5.21,-8.23,-1.50,9.86
-0.04,-9.11,3.77,9.86,-5.21,-8.20,-1.50,9.83
-0.04,-9.12,3.76,9.86,-5.25,-8.22,-1.47,9.86
-0.06,-9.12,3.77,9.86,-5.21,-8.25,-1.50,9.88
-0.02,-9.13,3.78,9.88,-5.25,-8.21,-1.47,9.85
-0.04,-9.08,3.78,9.84,-5.25,-8.24,-1.46,9.88
-0.06,-9.08,3.78,9.83,-5.21,-8.21,-1.48,9.84
-0.03,-9.11,3.79,9.87,-5.19,-8.23,-1.50,9.84
-0.07,-9.12,3.78,9.87,-5.20,-8.24,-1.45,9.85
-0.03,-9.10,3.78,9.85,-5.22,-8.24,-1.48,9.87
-0.04,-9.10,3.79,9.86,-5.22,-8.26,-1.45,9.88
-0.04,-9.08,3.79,9.84,-5.22,-8.27,-1.45,9.89
-0.04,-9.10,3.79,9.86,-5.24,-8.23,-1.47,9.87
-0.01,-9.08,3.79,9.84,-5.21,-8.27,-1.45,9.88
-0.02,-9.12,3.79,9.87,-5.22,-8.26,-1.47,9.88
-0.02,-9.09,3.80,9.85,-5.23,-8.26,-1.48,9.88
-0.02,-9.08,3.82,9.85,-5.19,-8.27,-1.46,9.87
-0.04,-9.10,3.79,9.86,-5.21,-8.29,-1.48,9.90
0.00,-9.08,3.79,9.84,-5.20,-8.29,-1.51,9.90
0.01,-9.06,3.80,9.82,-5.18,-8.25,-1.48,9.86
-0.00,-9.09,3.80,9.85,-5.21,-8.25,-1.50,9.87
-0.01,-9.09,3.79,9.85,-5.24,-8.23,-1.49,9.87
-0.05,-9.09,3.77,9.84,-5.23,-8.23,-1.50,9.87
-0.04,-9.11,3.76,9.85,-5.24,-8.25,-1.46,9.88
-0.04,-9.10,3.75,9.84,-5.22,-8.22,-1.48,9.85
-0.06,-9.11,3.77,9.86,-5.26,-8.23,-1.49,9.88
-0.07,-9.12,3.76,9.87,-5.25,-8.24,-1.48,9.88
-0.03,-9.10,3.77,9.85,-5.28,-8.23,-1.46,9.88
-0.07,-9.13,3.78,9.88,-5.24,-8.23,-1.47,9.86
-0.03,-9.09,3.76,9.84,-5.27,-8.23,-1.48,9.89
-0.04,-9.09,3.75,9.83,-5.20,-8.22,-1.48,9.84
-0.05,-9.08,3.75,9.83,-5.22,-8.21,-1.50,9.85
-0.05,-9.09,3.76,9.84,-5.22,-8.21,-1.50,9.84
-0.06,-9.11,3.75,9.85,-5.21,-8.20,-1.46,9.82
-0.02,-9.11,3.78,9.87,-5.23,-8.23,-1.47,9.86
-0.00,-9.11,3.77,9.85,-5.22,-8.29,-1.50,9.91
-0.03,-9.10,3.78,9.86,-5.22,-8.26,-1.50,9.89
-0.03,-9.08,3.80,9.84,-5.24,-8.27,-1.47,9.90
0.00,-9.07,3.81,9.83,-5.20,-8.24,-1.47,9.86
-0.03,-9.10,3.81,9.86,-5.20,-8.26,-1.46,9.87
-0.03,-9.07,3.81,9.84,-5.18,-8.25,-1.46,9.85
-0.04,-9.07,3.82,9.84,-5.22,-8.26,-1.48,9.88
-0.03,-9.11,3.81,9.88,-5.21,-8.23,-1.46,9.85
-0.03,-9.09,3.82,9.86,-5.22,-8.27,-1.46,9.89
-0.06,-9.10,3.79,9.86,-5.21,-8.29,-1.48,9.90
-0.04,-9.07,3.80,9.83,-5.22,-8.27,-1.45,9.88
-0.03,-9.07,3.79,9.83,-5.21,-8.27,-1.46,9.88
-0.05,-9.10,3.78,9.85,-5.23,-8.22,-1.45,9.85
-0.02,-9.13,3.77,9.88,-5.22,-8.22,-1.47,9.85
-0.02,-9.13,3.77,9.88,-5.22,-8.24,-1.51,9.87
-0.03,-9.12,3.78,9.87,-5.24,-8.23,-1.47,9.86
-0.04,-9.10,3.77,9.85,-5.25,-8.25,-1.48,9.89
-0.05,-9.09,3.74,9.83,-5.21,-8.24,-1.47,9.86
-0.06,-9.11,3.75,9.85,-5.24,-8.24,-1.52,9.88
-0.06,-9.11,3.75,9.85,-5.24,-8.20,-1.48,9.85
-0.05,-9.08,3.75,9.83,-5.21,-8.21,-1.50,9.84
-0.04,-9.13,3.76,9.87,-5.23,-8.22,-1.48,9.85
-0.06,-9.10,3.78,9.85,-5.26,-8.21,-1.51,9.86
-0.04,-9.08,3.77,9.83,-5.25,-8.21,-1.49,9.86
-0.04,-9.12,3.78,9.88,-5.24,-8.24,-1.45,9.88
-0.04,-9.09,3.81,9.86,-5.23,-8.28,-1.46,9.90
-0.05,-9.10,3.80,9.86,-5.24,-8.30,-1.43,9.92
-0.04,-9.08,3.82,9.85,-5.21,-8.27,-1.47,9.89
-0.03,-9.09,3.79,9.85,-5.22,-8.24,-1.47,9.87
-0.02,-9.09,3.81,9.86,-5.17,-8.26,-1.45,9.85
-0.02,-9.10,3.81,9.86,-5.18,-8.23,-1.45,9.83
-0.04,-9.09,3.81,9.86,-5.20,-8.24,-1.48,9.85
-0.04,-9.10,3.80,9.86,-5.22,-8.25,-1.47,9.87
-0.01,-9.11,3.79,9.86,-5.22,-8.27,-1.48,9.89
-0.03,-9.06,3.79,9.82,-5.23,-8.26,-1.48,9.89
-0.06,-9.07,3.77,9.82,-5.23,-8.24,-1.46,9.87
-0.05,-9.11,3.78,9.86,-5.24,-8.23,-1.48,9.87
-0.05,-9.12,3.78,9.87,-5.22,-8.23,-1.48,9.86
-0.04,-9.09,3.79,9.84,-5.24,-8.24,-1.47,9.88
-0.03,-9.09,3.77,9.84,-5.22,-8.22,-1.47,9.84
-0.03,-9.10,3.77,9.85,-5.20,-8.20,-1.49,9.83
0.00,-9.11,3.75,9.85,-5.24,-8.23,-1.51,9.88
-0.02,-9.13,3.77,9.88,-5.22,-8.22,-1.49,9.85
-0.04,-9.10,3.77,9.85,-5.25,-8.23,-1.51,9.88
-0.03,-9.10,3.79,9.86,-5.25,-8.24,-1.48,9.89
-0.04,-9.09,3.78,9.84,-5.26,-8.25,-1.51,9.90
-0.03,-9.09,3.77,9.84,-5.24,-8.21,-1.45,9.85
-0.04,-9.13,3.76,9.87,-5.23,-8.21,-1.51,9.85
-0.03,-9.10,3.78,9.85,-5.24,-8.18,-1.47,9.83
-0.06,-9.10,3.77,9.85,-5.23,-8.21,-1.48,9.84
-0.04,-9.08,3.80,9.85,-5.22,-8.23,-1.48,9.86
-0.05,-9.05,3.80,9.81,-5.21,-8.24,-1.48,9.86
-0.03,-9.06,3.79,9.82,-5.20,-8.24,-1.49,9.86
-0.05,-9.09,3.80,9.85,-5.21,-8.20,-1.46,9.83
-0.03,-9.11,3.82,9.88,-5.24,-8.21,-1.47,9.85
-0.05,-9.11,3.82,9.88,-5.24,-8.26,-1.45,9.89
-0.04,-9.09,3.82,9.86,-5.20,-8.26,-1.43,9.87
-0.04,-9.09,3.82,9.86,-5.21,-8.24,-1.48,9.86
-0.03,-9.10,3.79,9.85,-5.20,-8.24,-1.47,9.86
-0.04,-9.11,3.80,9.87,-5.24,-8.26,-1.45,9.89
-0.03,-9.11,3.80,9.87,-5.26,-8.23,-1.46,9.87
-0.05,-9.08,3.80,9.85,-5.24,-8.26,-1.43,9.89
-0.03,-9.07,3.77,9.83,-5.22,-8.24,-1.47,9.87
-0.03,-9.10,3.75,9.84,-5.22,-8.22,-1.50,9.85
-0.04,-9.08,3.77,9.83,-5.24,-8.17,-1.55,9.83
-0.03,-9.14,3.76,9.89,-5.24,-8.17,-1.47,9.82
-0.03,-9.12,3.74,9.86,-5.30,-8.23,-1.48,9.90
-0.05,-9.09,3.76,9.84,-5.26,-8.22,-1.50,9.87
-0.04,-9.08,3.77,9.83,-5.26,-8.22,-1.50,9.88
-0.04,-9.10,3.74,9.84,-5.25,-8.21,-1.55,9.87
-0.04,-9.13,3.77,9.88,-5.24,-8.21,-1.49,9.85
-0.06,-9.08,3.78,9.84,-5.25,-8.18,-1.48,9.84
-0.05,-9.17,3.78,9.92,-5.27,-8.22,-1.48,9.87
-0.06,-9.06,3.80,9.83,-5.23,-8.25,-1.46,9.87
-0.05,-9.08,3.79,9.84,-5.22,-8.24,-1.44,9.86
-0.06,-9.08,3.79,9.84,-5.25,-8.24,-1.50,9.89
-0.03,-9.10,3.80,9.86,-5.22,-8.24,-1.47,9.86
-0.04,-9.08,3.79,9.84,-5.20,-8.25,-1.44,9.86
-0.03,-9.12,3.80,9.88,-5.23,-8.23,-1.48,9.87
-0.03,-9.06,3.81,9.83,-5.24,-8.23,-1.44,9.87
-0.00,-9.07,3.79,9.84,-5.18,-8.24,-1.48,9.84
-0.01,-9.11,3.82,9.88,-5.20,-8.22,-1.50,9.84
-0.01,-9.09,3.82,9.86,-5.20,-8.28,-1.47,9.89
-0.03,-9.08,3.79,9.84,-5.23,-8.27,-1.41,9.89
-0.04,-9.11,3.79,9.86,-5.26,-8.29,-1.48,9.93
-0.05,-9.09,3.81,9.86,-5.23,-8.29,-1.48,9.92
-0.06,-9.07,3.80,9.84,-5.20,-8.24,-1.49,9.86
-0.05,-9.12,3.77,9.87,-5.28,-8.22,-1.51,9.89
-0.05,-9.09,3.79,9.85,-5.24,-8.21,-1.44,9.84
-0.06,-9.10,3.76,9.85,-5.24,-8.19,-1.47,9.83
-0.05,-9.10,3.76,9.85,-5.30,-8.19,-1.47,9.87
-0.06,-9.10,3.77,9.85,-5.25,-8.19,-1.51,9.84
-0.03,-9.08,3.78,9.84,-5.25,-8.24,-1.51,9.88
-0.04,-9.10,3.78,9.86,-5.26,-8.22,-1.52,9.88
-0.03,-9.12,3.78,9.87,-5.26,-8.21,-1.51,9.86
-0.05,-9.09,3.76,9.84,-5.22,-8.24,-1.50,9.87
-0.02,-9.10,3.77,9.85,-5.22,-8.23,-1.50,9.86
-0.01,-9.10,3.77,9.85,-5.25,-8.25,-1.52,9.89
-0.04,-9.08,3.80,9.85,-5.22,-8.22,-1.50,9.85
-0.03,-9.11,3.77,9.86,-5.22,-8.22,-1.50,9.85
-0.02,-9.12,3.80,9.88,-5.26,-8.22,-1.44,9.86
-0.03,-9.10,3.79,9.86,-5.23,-8.24,-1.47,9.87
-0.02,-9.07,3.80,9.84,-5.22,-8.24,-1.42,9.86
-0.02,-9.07,3.80,9.83,-5.24,-8.23,-1.44,9.87
-0.05,-9.08,3.80,9.84,-5.20,-8.24,-1.42,9.85
-0.06,-9.10,3.82,9.87,-5.24,-8.22,-1.45,9.86
-0.06,-9.11,3.83,9.88,-5.23,-8.23,-1.45,9.86
-0.01,-9.11,3.79,9.86,-5.23,-8.25,-1.47,9.88
-0.02,-9.08,3.80,9.84,-5.21,-8.24,-1.43,9.86
-0.04,-9.09,3.78,9.84,-5.21,-8.25,-1.49,9.87
-0.03,-9.09,3.79,9.85,-5.23,-8.24,-1.48,9.87
-0.01,-9.10,3.78,9.86,-5.22,-8.22,-1.50,9.85
-0.05,-9.10,3.76,9.85,-5.23,-8.24,-1.53,9.88
-0.02,-9.10,3.78,9.85,-5.25,-8.23,-1.52,9.88
-0.04,-9.09,3.77,9.84,-5.26,-8.22,-1.50,9.88
-0.02,-9.12,3.74,9.85,-5.25,-8.21,-1.51,9.86
-0.03,-9.13,3.77,9.87,-5.27,-8.20,-1.53,9.87
-0.03,-9.11,3.77,9.86,-5.27,-8.21,-1.48,9.87
-0.05,-9.12,3.78,9.88,-5.28,-8.22,-1.46,9.88
-0.06,-9.09,3.77,9.84,-5.26,-8.23,-1.48,9.88
-0.06,-9.09,3.77,9.84,-5.24,-8.22,-1.46,9.86
-0.03,-9.07,3.76,9.82,-5.24,-8.21,-1.50,9.86
-0.05,-9.11,3.78,9.86,-5.27,-8.18,-1.48,9.84
-0.04,-9.13,3.78,9.88,-5.25,-8.19,-1.47,9.84
-0.07,-9.11,3.80,9.87,-5.23,-8.22,-1.47,9.85
-0.01,-9.09,3.80,9.85,-5.21,-8.29,-1.46,9.90
-0.00,-9.06,3.80,9.83,-5.22,-8.26,-1.44,9.88
-0.01,-9.09,3.80,9.85,-5.22,-8.25,-1.50,9.88
-0.05,-9.11,3.81,9.88,-5.24,-8.24,-1.47,9.88
-0.01,-9.09,3.82,9.86,-5.24,-8.24,-1.45,9.88
-0.04,-9.12,3.82,9.89,-5.25,-8.25,-1.48,9.89
-0.03,-9.04,3.77,9.80,-5.22,-8.22,-1.45,9.85
-0.01,-9.19,3.82,9.95,-5.21,-8.20,-1.53,9.84
-0.05,-9.14,3.82,9.90,-5.29,-8.19,-1.51,9.86
-0.02,-9.07,3.80,9.84,-5.21,-8.29,-1.40,9.89
-0.04,-8.98,3.77,9.74,-5.22,-8.26,-1.49,9.88
-0.01,-8.98,3.78,9.74,-5.28,-8.23,-1.53,9.90
-0.03,-8.99,3.74,9.74,-5.28,-8.29,-1.47,9.93
-0.07,-9.19,3.75,9.92,-5.23,-8.15,-1.58,9.81
-0.06,-9.16,3.79,9.91,-5.33,-8.15,-1.50,9.85
-0.05,-9.03,3.75,9.78,-5.17,-8.26,-1.47,9.86
-0.03,-9.17,3.75,9.91,-5.24,-8.19,-1.48,9.83
-0.02,-9.25,3.82,10.01,-5.30,-8.18,-1.54,9.87
0.00,-8.98,3.80,9.75,-5.33,-8.28,-1.44,9.95
0.04,-9.00,3.79,9.77,-5.17,-8.26,-1.44,9.85
0.05,-9.20,3.84,9.97,-5.22,-8.24,-1.55,9.88
-0.02,-9.03,3.73,9.77,-5.35,-8.23,-1.51,9.94
-0.26,-9.04,3.71,9.78,-5.39,-8.14,-1.43,9.87
-0.07,-9.23,3.80,9.98,-5.32,-8.09,-1.52,9.80
-0.03,-9.12,3.80,9.88,-5.28,-8.19,-1.51,9.86
-0.01,-9.01,3.78,9.77,-5.19,-8.23,-1.43,9.84
-0.03,-9.18,3.81,9.94,-5.25,-8.20,-1.58,9.86
-0.03,-9.08,3.81,9.85,-5.27,-8.27,-1.51,9.93
-0.02,-8.96,3.77,9.72,-5.12,-8.27,-1.43,9.83
-0.02,-8.97,3.79,9.73,-5.19,-8.21,-1.47,9.83
-0.02,-9.29,3.90,10.07,-5.33,-8.21,-1.62,9.92
-0.01,-8.98,3.82,9.76,-5.26,-8.33,-1.38,9.95
-0.00,-8.98,3.82,9.76,-5.15,-8.28,-1.39,9.85
-0.04,-9.19,3.87,9.98,-5.32,-8.18,-1.55,9.88
-0.03,-9.04,3.83,9.81,-5.28,-8.26,-1.47,9.91
-0.03,-9.21,3.80,9.97,-5.09,-8.12,-1.55,9.71
-0.06,-9.36,3.86,10.12,-5.39,-8.10,-1.45,9.84
-0.06,-8.94,3.80,9.71,-5.34,-8.32,-1.38,9.98
-0.05,-8.98,3.79,9.75,-5.23,-8.32,-1.45,9.93
-0.04,-9.24,3.81,10.00,-5.25,-8.19,-1.50,9.84
-0.00,-8.98,3.74,9.73,-5.28,-8.27,-1.49,9.93
-0.02,-9.08,3.75,9.83,-5.13,-8.16,-1.59,9.77
-0.05,-9.28,3.75,10.01,-5.28,-8.11,-1.53,9.80
-0.03,-9.19,3.78,9.94,-5.19,-8.28,-1.22,9.84
0.01,-8.91,3.75,9.67,-5.54,-8.12,-1.86,10.00
-0.07,-9.20,3.92,10.00,-5.43,-8.17,-1.71,9.96
-0.06,-9.06,3.83,9.83,-5.26,-8.15,-1.55,9.82
-0.03,-9.06,3.73,9.79,-5.30,-8.22,-1.50,9.90
-0.04,-9.29,3.72,10.01,-5.35,-8.13,-1.58,9.87
-0.03,-9.05,3.82,9.83,-5.48,-8.16,-1.57,9.96
-0.03,-8.97,3.77,9.73,-5.26,-8.27,-1.33,9.89
-0.04,-9.09,3.81,9.85,-5.08,-8.21,-1.40,9.75
-0.04,-9.17,3.83,9.93,-5.31,-8.21,-1.45,9.88
-0.01,-9.04,3.84,9.82,-5.11,-8.27,-1.43,9.83
-0.04,-9.20,3.86,9.98,-5.20,-8.28,-1.40,9.88
-0.01,-9.07,3.86,9.86,-5.32,-8.32,-1.45,9.98
-0.00,-8.97,3.84,9.76,-5.17,-8.35,-1.39,9.92
-0.02,-9.08,3.83,9.86,-5.21,-8.23,-1.52,9.86
-0.02,-9.16,3.84,9.93,-5.30,-8.19,-1.53,9.88
-0.04,-9.01,3.77,9.76,-5.19,-8.25,-1.37,9.85
-0.02,-9.14,3.77,9.89,-5.17,-8.24,-1.46,9.84
-0.02,-9.17,3.81,9.93,-5.39,-8.24,-1.44,9.96
-0.03,-9.02,3.76,9.77,-5.14,-8.22,-1.48,9.80
-0.05,-9.06,3.72,9.80,-5.21,-8.20,-1.52,9.83
-0.03,-9.14,3.77,9.89,-5.32,-8.16,-1.54,9.86
-0.03,-9.15,3.77,9.89,-5.25,-8.23,-1.46,9.87
-0.07,-9.10,3.77,9.84,-5.27,-8.26,-1.47,9.91
-0.03,-9.12,3.78,9.87,-5.31,-8.22,-1.48,9.89
-0.06,-9.03,3.74,9.78,-5.26,-8.20,-1.45,9.85
-0.05,-9.08,3.77,9.83,-5.22,-8.22,-1.49,9.85
-0.06,-9.16,3.78,9.91,-5.29,-8.18,-1.49,9.86
-0.03,-9.12,3.79,9.87,-5.26,-8.21,-1.40,9.85
-0.04,-9.09,3.80,9.85,-5.23,-8.25,-1.43,9.87
-0.07,-9.12,3.78,9.87,-5.27,-8.24,-1.49,9.90
-0.03,-9.09,3.79,9.85,-5.25,-8.27,-1.47,9.90
-0.05,-9.07,3.77,9.82,-5.17,-8.26,-1.46,9.85
-0.04,-9.13,3.78,9.88,-5.27,-8.21,-1.50,9.87
-0.01,-9.11,3.83,9.88,-5.27,-8.24,-1.43,9.89
-0.01,-9.09,3.79,9.85,-5.20,-8.26,-1.45,9.87
0.00,-9.09,3.80,9.85,-5.22,-8.24,-1.48,9.86
-0.00,-9.09,3.81,9.85,-5.20,-8.25,-1.49,9.87
-0.03,-9.05,3.81,9.82,-5.17,-8.26,-1.47,9.85
-0.02,-9.12,3.81,9.88,-5.23,-8.24,-1.48,9.87
-0.05,-9.09,3.83,9.86,-5.25,-8.25,-1.44,9.88
-0.03,-9.10,3.81,9.86,-5.23,-8.25,-1.41,9.87
-0.03,-9.11,3.81,9.87,-5.27,-8.26,-1.46,9.91
-0.08,-9.10,3.78,9.85,-5.25,-8.26,-1.48,9.90
-0.03,-9.10,3.78,9.85,-5.23,-8.22,-1.44,9.85
-0.07,-9.13,3.77,9.88,-5.30,-8.18,-1.44,9.85
-0.06,-9.14,3.80,9.89,-5.27,-8.18,-1.44,9.84
-0.04,-9.11,3.78,9.86,-5.27,-8.22,-1.46,9.87
-0.03,-9.08,3.77,9.83,-5.26,-8.23,-1.47,9.88
-0.03,-9.09,3.74,9.83,-5.25,-8.24,-1.50,9.89
-0.03,-9.07,3.77,9.82,-5.22,-8.21,-1.46,9.84
-0.00,-9.12,3.77,9.87,-5.25,-8.22,-1.47,9.86
-0.02,-9.12,3.78,9.87,-5.25,-8.23,-1.47,9.88
-0.03,-9.12,3.79,9.88,-5.25,-8.23,-1.49,9.88
0.01,-9.12,3.79,9.88,-5.21,-8.27,-1.45,9.88
-0.04,-9.07,3.79,9.83,-5.25,-8.24,-1.47,9.88
-0.04,-9.12,3.78,9.87,-5.24,-8.26,-1.49,9.90
-0.02,-9.06,3.81,9.83,-5.21,-8.24,-1.44,9.85
-0.04,-9.09,3.80,9.85,-5.26,-8.21,-1.42,9.85
-0.05,-9.11,3.80,9.87,-5.29,-8.21,-1.39,9.86
-0.06,-9.09,3.79,9.85,-5.25,-8.24,-1.42,9.88
-0.06,-9.12,3.81,9.88,-5.26,-8.22,-1.45,9.86
-0.05,-9.12,3.82,9.89,-5.24,-8.24,-1.44,9.87
-0.04,-9.10,3.81,9.87,-5.25,-8.22,-1.43,9.86
-0.03,-9.09,3.81,9.86,-5.23,-8.24,-1.48,9.88
-0.03,-9.06,3.81,9.83,-5.23,-8.24,-1.45,9.87
-0.03,-9.05,3.78,9.81,-5.20,-8.21,-1.47,9.83
-0.01,-9.09,3.78,9.84,-5.23,-8.21,-1.45,9.84
0.02,-9.10,3.78,9.86,-5.23,-8.20,-1.48,9.84
0.00,-9.09,3.79,9.85,-5.24,-8.19,-1.49,9.84
-0.01,-9.11,3.77,9.86,-5.23,-8.22,-1.48,9.85
-0.03,-9.10,3.78,9.85,-5.24,-8.26,-1.49,9.89
-0.02,-9.00,3.77,9.76,-5.24,-8.24,-1.52,9.88
-0.06,-9.09,3.77,9.84,-5.28,-8.23,-1.48,9.89
-0.07,-9.09,3.78,9.84,-5.28,-8.21,-1.45,9.87
-0.09,-9.14,3.79,9.90,-5.30,-8.20,-1.42,9.87
-0.09,-9.13,3.78,9.88,-5.29,-8.20,-1.48,9.87
-0.07,-9.07,3.79,9.83,-5.25,-8.22,-1.40,9.85
-0.03,-9.09,3.79,9.84,-5.24,-8.20,-1.44,9.84
-0.07,-9.15,3.82,9.92,-5.25,-8.18,-1.45,9.83
-0.01,-9.08,3.80,9.84,-5.21,-8.23,-1.45,9.85
0.00,-9.10,3.79,9.86,-5.20,-8.25,-1.45,9.86
-0.01,-9.09,3.82,9.86,-5.27,-8.25,-1.47,9.90
-0.01,-9.07,3.78,9.83,-5.21,-8.27,-1.46,9.88
0.00,-9.07,3.82,9.84,-5.21,-8.22,-1.48,9.84
-0.01,-9.11,3.80,9.87,-5.22,-8.26,-1.50,9.88
-0.02,-9.12,3.81,9.89,-5.27,-8.26,-1.41,9.90
-0.03,-9.09,3.80,9.85,-5.24,-8.27,-1.46,9.90
-0.03,-9.13,3.79,9.88,-5.26,-8.24,-1.44,9.88
-0.05,-9.07,3.78,9.82,-5.25,-8.19,-1.44,9.83
-0.06,-9.10,3.78,9.85,-5.21,-8.19,-1.44,9.82
-0.07,-9.11,3.79,9.86,-5.25,-8.19,-1.45,9.84
-0.06,-9.13,3.78,9.88,-5.28,-8.20,-1.42,9.86
-0.04,-9.12,3.80,9.88,-5.27,-8.23,-1.41,9.87
-0.05,-9.07,3.79,9.83,-5.26,-8.23,-1.45,9.88
-0.05,-9.08,3.80,9.85,-5.26,-8.25,-1.46,9.89
-0.03,-9.08,3.77,9.83,-5.21,-8.24,-1.47,9.86
-0.04,-9.14,3.78,9.89,-5.26,-8.24,-1.45,9.88
-0.01,-9.12,3.77,9.87,-5.24,-8.23,-1.45,9.87
-0.03,-9.10,3.77,9.85,-5.25,-8.23,-1.45,9.87
-0.01,-9.08,3.77,9.83,-5.25,-8.23,-1.49,9.88
-0.02,-9.09,3.77,9.84,-5.24,-8.21,-1.50,9.85
-0.07,-9.10,3.75,9.84,-5.22,-8.20,-1.47,9.84
-0.02,-9.13,3.77,9.88,-5.26,-8.23,-1.48,9.88
-0.04,-9.12,3.76,9.87,-5.30,-8.20,-1.44,9.87
-0.04,-9.11,3.78,9.86,-5.26,-8.23,-1.45,9.87
-0.04,-9.07,3.77,9.82,-5.25,-8.23,-1.48,9.87
-0.07,-9.10,3.78,9.85,-5.25,-8.25,-1.45,9.89
-0.04,-9.10,3.79,9.86,-5.22,-8.23,-1.44,9.85
-0.03,-9.09,3.82,9.86,-5.25,-8.18,-1.45,9.83
-0.03,-9.13,3.85,9.91,-5.23,-8.23,-1.46,9.86
-0.03,-9.09,3.82,9.86,-5.21,-8.25,-1.43,9.86
-0.04,-9.08,3.81,9.85,-5.22,-8.27,-1.44,9.89
-0.05,-9.07,3.82,9.84,-5.23,-8.24,-1.46,9.87
-0.03,-9.09,3.82,9.86,-5.23,-8.24,-1.47,9.87
-0.02,-9.09,3.80,9.85,-5.24,-8.25,-1.45,9.88
-0.03,-9.11,3.79,9.86,-5.23,-8.22,-1.47,9.85
-0.01,-9.11,3.79,9.87,-5.27,-8.24,-1.46,9.89
-0.00,-9.08,3.77,9.83,-5.22,-8.23,-1.46,9.86
-0.03,-9.11,3.75,9.86,-5.26,-8.19,-1.49,9.85
-0.02,-9.07,3.76,9.82,-5.27,-8.18,-1.46,9.84
-0.02,-9.10,3.77,9.85,-5.23,-8.22,-1.47,9.85
-0.06,-9.12,3.78,9.87,-5.28,-8.24,-1.48,9.90
-0.06,-9.10,3.77,9.85,-5.25,-8.24,-1.45,9.88
-0.05,-9.10,3.78,9.86,-5.23,-8.23,-1.44,9.86
-0.06,-9.09,3.77,9.85,-5.28,-8.22,-1.45,9.87
-0.05,-9.12,3.80,9.88,-5.27,-8.19,-1.47,9.85
-0.03,-9.10,3.78,9.85,-5.28,-8.22,-1.45,9.88
-0.06,-9.10,3.81,9.87,-5.26,-8.23,-1.48,9.88
-0.05,-9.09,3.81,9.85,-5.30,-8.22,-1.45,9.88
-0.04,-9.09,3.80,9.85,-5.22,-8.20,-1.46,9.83
-0.03,-9.09,3.79,9.85,-5.22,-8.23,-1.46,9.85
-0.05,-9.11,3.77,9.86,-5.25,-8.22,-1.50,9.87
-0.01,-9.09,3.78,9.85,-5.23,-8.23,-1.45,9.85
-0.03,-9.11,3.82,9.88,-5.23,-8.25,-1.47,9.88
-0.02,-9.11,3.81,9.87,-5.22,-8.25,-1.47,9.87
-0.03,-9.04,3.80,9.81,-5.22,-8.23,-1.42,9.85
-0.01,-9.08,3.79,9.84,-5.22,-8.22,-1.50,9.85
-0.02,-9.08,3.78,9.84,-5.24,-8.21,-1.47,9.85
-0.03,-9.10,3.80,9.86,-5.25,-8.25,-1.45,9.88
-0.06,-9.13,3.85,9.91,-5.26,-8.23,-1.44,9.87
-0.03,-9.10,3.81,9.87,-5.25,-8.25,-1.41,9.87
-0.07,-9.09,3.80,9.85,-5.27,-8.27,-1.42,9.91
-0.06,-9.09,3.80,9.85,-5.28,-8.24,-1.45,9.90
-0.05,-9.08,3.79,9.84,-5.25,-8.23,-1.47,9.87
-0.05,-9.09,3.76,9.84,-5.23,-8.19,-1.49,9.83
-0.05,-9.14,3.77,9.89,-5.27,-8.17,-1.50,9.84
-0.03,-9.12,3.79,9.88,-5.28,-8.18,-1.48,9.85
-0.00,-9.10,3.77,9.84,-5.26,-8.23,-1.45,9.87
-0.03,-9.09,3.79,9.84,-5.23,-8.26,-1.52,9.89
-0.02,-9.08,3.77,9.83,-5.22,-8.26,-1.51,9.88
-0.04,-9.09,3.79,9.84,-5.25,-8.23,-1.48,9.87
-0.02,-9.11,3.80,9.87,-5.23,-8.21,-1.46,9.84
-0.04,-9.11,3.81,9.88,-5.25,-8.21,-1.45,9.86
-0.04,-9.09,3.78,9.85,-5.24,-8.24,-1.43,9.86
-0.06,-9.07,3.77,9.83,-5.24,-8.21,-1.42,9.85
-0.04,-9.10,3.78,9.86,-5.23,-8.21,-1.44,9.85
-0.05,-9.09,3.79,9.84,-5.26,-8.20,-1.45,9.85
-0.06,-9.13,3.81,9.89,-5.23,-8.24,-1.44,9.86
-0.05,-9.08,3.80,9.84,-5.30,-8.21,-1.43,9.88
-0.06,-9.10,3.80,9.86,-5.23,-8.25,-1.43,9.87
-0.04,-9.08,3.80,9.84,-5.24,-8.27,-1.47,9.89
-0.03,-9.08,3.82,9.85,-5.25,-8.22,-1.47,9.87
-0.03,-9.11,3.82,9.88,-5.21,-8.24,-1.50,9.87
0.00,-9.12,3.78,9.87,-5.21,-8.26,-1.49,9.87
0.01,-9.12,3.78,9.87,-5.22,-8.24,-1.48,9.87
0.00,-9.09,3.79,9.85,-5.22,-8.22,-1.49,9.86
0.00,-9.09,3.77,9.84,-5.22,-8.24,-1.52,9.87
-0.04,-9.10,3.78,9.86,-5.24,-8.22,-1.50,9.87
-0.06,-9.09,3.78,9.84,-5.25,-8.21,-1.45,9.85
-0.07,-9.11,3.76,9.86,-5.26,-8.19,-1.45,9.84
-0.03,-9.11,3.82,9.88,-5.28,-8.21,-1.44,9.87
-0.05,-9.10,3.79,9.85,-5.27,-8.22,-1.44,9.86
-0.05,-9.11,3.77,9.86,-5.26,-8.21,-1.50,9.87
-0.08,-9.10,3.79,9.86,-5.25,-8.22,-1.47,9.87
-0.05,-9.12,3.78,9.87,-5.23,-8.20,-1.45,9.83
-0.04,-9.09,3.78,9.84,-5.26,-8.23,-1.45,9.87
-0.04,-9.11,3.78,9.87,-5.28,-8.23,-1.49,9.90
-0.06,-9.11,3.79,9.87,-5.26,-8.24,-1.47,9.88
-0.03,-9.09,3.79,9.85,-5.23,-8.23,-1.48,9.87
-0.02,-9.10,3.77,9.85,-5.27,-8.21,-1.44,9.86
-0.04,-9.09,3.79,9.84,-5.24,-8.22,-1.45,9.86
-0.01,-9.11,3.78,9.87,-5.24,-8.24,-1.45,9.87
-0.04,-9.10,3.79,9.86,-5.24,-8.22,-1.45,9.85
-0.01,-9.10,3.81,9.87,-5.24,-8.26,-1.50,9.89
-0.05,-9.10,3.80,9.86,-5.24,-8.25,-1.43,9.88
-0.03,-9.07,3.80,9.84,-5.22,-8.25,-1.46,9.87
-0.06,-9.10,3.79,9.86,-5.23,-8.25,-1.45,9.87
-0.05,-9.06,3.83,9.84,-5.24,-8.24,-1.43,9.87
-0.06,-9.10,3.81,9.86,-5.26,-8.26,-1.44,9.89
-0.03,-9.10,3.82,9.87,-5.28,-8.19,-1.49,9.86
-0.03,-9.04,3.82,9.82,-5.24,-8.23,-1.45,9.86
-0.04,-9.03,3.79,9.79,-5.25,-8.24,-1.47,9.88
-0.05,-9.12,3.80,9.88,-5.24,-8.27,-1.48,9.90
-0.00,-9.12,3.81,9.88,-5.29,-8.23,-1.50,9.90
-0.04,-9.05,3.78,9.81,-5.26,-8.26,-1.43,9.90
-0.03,-9.03,3.77,9.79,-5.22,-8.22,-1.46,9.84
-0.02,-9.18,3.78,9.93,-5.25,-8.16,-1.51,9.82
-0.05,-9.12,3.76,9.87,-5.29,-8.19,-1.48,9.86
-0.03,-9.06,3.75,9.81,-5.22,-8.23,-1.45,9.85
-0.06,-9.13,3.77,9.88,-5.29,-8.20,-1.50,9.87
-0.07,-9.06,3.76,9.81,-5.27,-8.21,-1.49,9.87
-0.03,-9.11,3.75,9.86,-5.23,-8.22,-1.48,9.85
-0.04,-9.14,3.78,9.89,-5.32,-8.17,-1.45,9.86
-0.04,-9.13,3.82,9.90,-5.27,-8.25,-1.45,9.89
-0.03,-9.08,3.77,9.83,-5.23,-8.28,-1.40,9.89
-0.02,-9.09,3.79,9.85,-5.26,-8.23,-1.48,9.88
-0.05,-9.07,3.81,9.83,-5.24,-8.24,-1.47,9.87
-0.02,-9.07,3.83,9.85,-5.22,-8.23,-1.45,9.85
-0.02,-9.12,3.81,9.89,-5.24,-8.19,-1.45,9.83
-0.03,-9.10,3.82,9.87,-5.30,-8.24,-1.42,9.90
-0.01,-9.09,3.80,9.85,-5.20,-8.30,-1.45,9.90
-0.02,-9.07,3.79,9.83,-5.24,-8.22,-1.46,9.86
-0.02,-9.13,3.81,9.89,-5.23,-8.25,-1.46,9.87
-0.03,-9.09,3.82,9.86,-5.22,-8.25,-1.46,9.87
-0.03,-9.14,3.81,9.90,-5.25,-8.25,-1.43,9.88
-0.03,-9.12,3.81,9.88,-5.30,-8.22,-1.43,9.89
-0.05,-9.08,3.79,9.84,-5.24,-8.25,-1.46,9.88
-0.05,-9.06,3.77,9.82,-5.22,-8.23,-1.49,9.86
-0.06,-9.10,3.78,9.86,-5.24,-8.15,-1.46,9.80
-0.04,-9.10,3.78,9.86,-5.27,-8.19,-1.43,9.84
-0.06,-9.13,3.79,9.88,-5.26,-8.21,-1.47,9.86
-0.05,-9.12,3.78,9.87,-5.27,-8.24,-1.44,9.89
-0.07,-9.09,3.79,9.85,-5.27,-8.23,-1.43,9.88
-0.01,-9.08,3.77,9.83,-5.25,-8.21,-1.45,9.85
-0.03,-9.10,3.78,9.86,-5.27,-8.18,-1.51,9.85
-0.02,-9.12,3.77,9.87,-5.27,-8.21,-1.47,9.87
-0.05,-9.12,3.77,9.87,-5.27,-8.22,-1.44,9.87
-0.03,-9.11,3.79,9.87,-5.26,-8.23,-1.50,9.89
-0.02,-9.08,3.78,9.83,-5.26,-8.24,-1.48,9.89
-0.02,-9.08,3.77,9.83,-5.22,-8.22,-1.51,9.86
-0.03,-9.11,3.78,9.87,-5.24,-8.23,-1.46,9.86
-0.01,-9.10,3.80,9.86,-5.26,-8.22,-1.45,9.86
-0.02,-9.10,3.78,9.86,-5.23,-8.24,-1.43,9.87
-0.00,-9.07,3.82,9.84,-5.25,-8.28,-1.46,9.91
-0.02,-9.06,3.81,9.83,-5.22,-8.25,-1.48,9.87
-0.05,-9.09,3.81,9.85,-5.23,-8.27,-1.48,9.90
-0.03,-9.09,3.81,9.85,-5.25,-8.23,-1.46,9.86
-0.02,-9.10,3.78,9.86,-5.26,-8.23,-1.41,9.87
-0.05,-9.17,3.82,9.93,-5.26,-8.21,-1.45,9.86
-0.05,-9.09,3.82,9.86,-5.27,-8.21,-1.41,9.86
-0.04,-9.07,3.80,9.84,-5.19,-8.25,-1.44,9.85
-0.04,-9.08,3.80,9.85,-5.27,-8.21,-1.46,9.87
-0.04,-9.11,3.78,9.87,-5.26,-8.25,-1.48,9.89
-0.03,-9.10,3.80,9.86,-5.25,-8.22,-1.43,9.86
-0.01,-9.11,3.80,9.87,-5.24,-8.22,-1.52,9.86
-0.01,-9.10,3.79,9.85,-5.27,-8.19,-1.48,9.85
-0.02,-9.07,3.76,9.82,-5.20,-8.20,-1.49,9.82
-0.02,-9.10,3.77,9.85,-5.26,-8.20,-1.48,9.86
-0.02,-9.10,3.76,9.85,-5.26,-8.21,-1.47,9.86
-0.01,-9.10,3.76,9.85,-5.25,-8.23,-1.48,9.88
-0.04,-9.13,3.77,9.88,-5.26,-8.25,-1.47,9.89
-0.05,-9.12,3.79,9.88,-5.30,-8.25,-1.45,9.91
-0.05,-9.09,3.80,9.85,-5.25,-8.24,-1.43,9.87
-0.06,-9.09,3.78,9.84,-5.26,-8.20,-1.47,9.86
-0.06,-9.12,3.79,9.87,-5.26,-8.22,-1.45,9.87
-0.05,-9.08,3.79,9.84,-5.21,-8.21,-1.43,9.83
-0.07,-9.10,3.81,9.86,-5.23,-8.20,-1.46,9.84
-0.04,-9.10,3.81,9.87,-5.27,-8.21,-1.45,9.86
-0.06,-9.09,3.79,9.85,-5.21,-8.25,-1.44,9.86
-0.00,-9.07,3.79,9.83,-5.23,-8.26,-1.47,9.88
0.03,-9.10,3.83,9.88,-5.23,-8.26,-1.46,9.88
-0.01,-9.11,3.80,9.87,-5.23,-8.25,-1.49,9.88
-0.02,-9.10,3.78,9.86,-5.21,-8.26,-1.47,9.87
-0.05,-9.08,3.81,9.85,-5.26,-8.24,-1.45,9.89
-0.05,-9.09,3.80,9.85,-5.24,-8.22,-1.46,9.85
-0.03,-9.08,3.79,9.84,-5.26,-8.21,-1.46,9.86
-0.05,-9.10,3.81,9.86,-5.24,-8.23,-1.48,9.86
-0.04,-9.08,3.78,9.84,-5.27,-8.23,-1.45,9.88
-0.03,-9.09,3.76,9.84,-5.24,-8.24,-1.46,9.87
-0.03,-9.10,3.79,9.86,-5.27,-8.24,-1.46,9.88
-0.06,-9.08,3.78,9.83,-5.27,-8.22,-1.46,9.87
-0.06,-9.09,3.78,9.85,-5.25,-8.20,-1.43,9.85
-0.03,-9.11,3.78,9.87,-5.24,-8.22,-1.49,9.86
-0.06,-9.05,3.77,9.81,-5.28,-8.22,-1.46,9.87
-0.05,-9.17,3.78,9.92,-5.27,-8.25,-1.48,9.90
-0.02,-9.05,3.81,9.82,-5.29,-8.24,-1.45,9.90
-0.01,-9.05,3.78,9.81,-5.21,-8.24,-1.45,9.86
-0.03,-9.11,3.79,9.87,-5.29,-8.22,-1.48,9.88
-0.03,-9.11,3.77,9.87,-5.26,-8.23,-1.47,9.88
-0.02,-9.08,3.77,9.83,-5.23,-8.23,-1.51,9.87
-0.04,-9.13,3.77,9.88,-5.28,-8.20,-1.51,9.87
-0.02,-9.07,3.81,9.84,-5.26,-8.25,-1.46,9.89
-0.05,-9.08,3.80,9.84,-5.22,-8.24,-1.45,9.87
-0.04,-9.10,3.79,9.86,-5.25,-8.23,-1.47,9.87
-0.01,-9.09,3.80,9.85,-5.26,-8.25,-1.47,9.90
-0.03,-9.11,3.79,9.86,-5.19,-8.24,-1.46,9.85
-0.01,-9.09,3.79,9.85,-5.29,-8.19,-1.45,9.86
-0.03,-9.10,3.82,9.87,-5.24,-8.23,-1.43,9.86
-0.05,-9.07,3.80,9.83,-5.23,-8.21,-1.44,9.84
-0.04,-9.11,3.80,9.87,-5.24,-8.22,-1.50,9.87
-0.02,-9.09,3.81,9.86,-5.24,-8.24,-1.42,9.87
-0.06,-9.08,3.80,9.84,-5.24,-8.26,-1.48,9.89
-0.05,-9.12,3.80,9.88,-5.26,-8.23,-1.43,9.87
-0.03,-9.09,3.77,9.84,-5.26,-8.22,-1.46,9.87
-0.04,-9.07,3.78,9.83,-5.27,-8.25,-1.45,9.89
-0.04,-9.10,3.78,9.85,-5.26,-8.22,-1.51,9.88
-0.04,-9.10,3.77,9.85,-5.26,-8.19,-1.50,9.85
-0.03,-9.11,3.77,9.86,-5.24,-8.21,-1.46,9.85
-0.05,-9.12,3.78,9.88,-5.27,-8.18,-1.47,9.84
-0.05,-9.10,3.77,9.85,-5.29,-8.20,-1.45,9.86
-0.04,-9.10,3.77,9.85,-5.26,-8.23,-1.47,9.88
-0.03,-9.10,3.78,9.85,-5.26,-8.26,-1.44,9.90
-0.03,-9.09,3.78,9.84,-5.28,-8.23,-1.44,9.88
-0.04,-9.08,3.80,9.85,-5.26,-8.21,-1.45,9.86
-0.05,-9.10,3.79,9.86,-5.25,-8.21,-1.46,9.86
-0.05,-9.09,3.80,9.85,-5.26,-8.21,-1.44,9.86
-0.01,-9.09,3.79,9.85,-5.27,-8.20,-1.42,9.85
-0.04,-9.09,3.80,9.85,-5.26,-8.21,-1.48,9.86
-0.06,-9.09,3.79,9.85,-5.26,-8.19,-1.48,9.85
-0.03,-9.11,3.78,9.86,-5.26,-8.23,-1.47,9.88
-0.04,-9.11,3.78,9.87,-5.28,-8.20,-1.43,9.86
0.00,-9.10,3.80,9.86,-5.25,-8.23,-1.49,9.88
-0.04,-9.06,3.80,9.83,-5.23,-8.25,-1.45,9.88
-0.00,-9.07,3.79,9.83,-5.24,-8.22,-1.45,9.85
-0.01,-9.09,3.80,9.85,-5.24,-8.22,-1.48,9.86
-0.00,-9.10,3.80,9.86,-5.24,-8.23,-1.50,9.87
-0.04,-9.10,3.82,9.87,-5.25,-8.24,-1.46,9.88
-0.03,-9.09,3.81,9.86,-5.25,-8.24,-1.46,9.87
-0.02,-9.11,3.79,9.87,-5.23,-8.23,-1.45,9.86
-0.04,-9.11,3.79,9.87,-5.25,-8.22,-1.42,9.86
-0.03,-9.13,3.78,9.88,-5.24,-8.25,-1.46,9.88
-0.07,-9.12,3.78,9.87,-5.27,-8.19,-1.44,9.84
-0.06,-9.11,3.78,9.86,-5.27,-8.22,-1.43,9.87
-0.06,-9.13,3.80,9.89,-5.27,-8.23,-1.47,9.89
-0.06,-9.08,3.78,9.84,-5.27,-8.22,-1.48,9.87
-0.03,-9.08,3.81,9.84,-5.27,-8.23,-1.48,9.89
-0.03,-9.08,3.80,9.84,-5.24,-8.24,-1.47,9.88
-0.03,-9.11,3.79,9.87,-5.25,-8.21,-1.46,9.85
-0.04,-9.10,3.78,9.85,-5.26,-8.20,-1.44,9.85
-0.04,-9.10,3.77,9.85,-5.25,-8.20,-1.45,9.84
-0.03,-9.10,3.79,9.86,-5.27,-8.21,-1.47,9.87
-0.03,-9.10,3.81,9.87,-5.25,-8.23,-1.45,9.87
-0.01,-9.10,3.78,9.85,-5.25,-8.25,-1.46,9.88
-0.02,-9.09,3.79,9.85,-5.24,-8.25,-1.45,9.88
-0.04,-9.10,3.79,9.85,-5.25,-8.26,-1.44,9.90
-0.04,-9.10,3.81,9.86,-5.25,-8.22,-1.47,9.86
-0.03,-9.10,3.79,9.86,-5.23,-8.21,-1.46,9.85
-0.01,-9.09,3.81,9.85,-5.25,-8.19,-1.46,9.84
-0.04,-9.09,3.81,9.86,-5.25,-8.22,-1.45,9.86
-0.04,-9.10,3.80,9.87,-5.27,-8.21,-1.47,9.86
-0.01,-9.10,3.76,9.85,-5.25,-8.19,-1.45,9.84
-0.05,-9.09,3.80,9.85,-5.28,-8.25,-1.50,9.91
-0.06,-9.10,3.79,9.85,-5.26,-8.22,-1.47,9.87
-0.05,-9.11,3.77,9.86,-5.28,-8.24,-1.46,9.90
-0.06,-9.08,3.79,9.84,-5.25,-8.23,-1.44,9.87
-0.03,-9.07,3.77,9.83,-5.27,-8.20,-1.46,9.86
-0.03,-9.11,3.80,9.87,-5.27,-8.20,-1.45,9.85
-0.04,-9.11,3.79,9.86,-5.26,-8.23,-1.49,9.89
-0.03,-9.07,3.80,9.83,-5.26,-8.25,-1.45,9.89
-0.02,-9.12,3.78,9.88,-5.26,-8.27,-1.47,9.91
-0.04,-9.06,3.78,9.82,-5.24,-8.25,-1.44,9.88
-0.06,-9.08,3.80,9.84,-5.25,-8.24,-1.48,9.88
-0.02,-9.08,3.79,9.84,-5.24,-8.23,-1.46,9.86
-0.04,-9.10,3.79,9.86,-5.28,-8.21,-1.46,9.87
-0.03,-9.10,3.79,9.86,-5.23,-8.22,-1.48,9.86
-0.00,-9.10,3.79,9.86,-5.26,-8.22,-1.47,9.87
-0.04,-9.10,3.82,9.87,-5.25,-8.22,-1.45,9.86
-0.02,-9.07,3.78,9.83,-5.24,-8.23,-1.45,9.87
-0.04,-9.09,3.81,9.86,-5.26,-8.21,-1.44,9.86
-0.04,-9.11,3.80,9.87,-5.29,-8.22,-1.49,9.88
-0.03,-9.11,3.79,9.87,-5.23,-8.24,-1.42,9.86
-0.04,-9.08,3.80,9.84,-5.24,-8.22,-1.44,9.85
-0.02,-9.08,3.81,9.85,-5.27,-8.24,-1.41,9.88
-0.01,-9.08,3.79,9.84,-5.24,-8.22,-1.44,9.85
-0.03,-9.12,3.80,9.88,-5.26,-8.21,-1.46,9.86
-0.01,-9.10,3.80,9.86,-5.26,-8.24,-1.48,9.89
-0.04,-9.07,3.80,9.84,-5.25,-8.24,-1.48,9.88
-0.05,-9.10,3.80,9.86,-5.24,-8.22,-1.46,9.86
-0.03,-9.09,3.80,9.85,-5.26,-8.22,-1.47,9.87
-0.04,-9.10,3.82,9.87,-5.26,-8.21,-1.48,9.86
-0.04,-9.11,3.78,9.86,-5.27,-8.23,-1.46,9.88
-0.04,-9.09,3.80,9.86,-5.26,-8.23,-1.45,9.88
-0.03,-9.08,3.81,9.85,-5.26,-8.22,-1.45,9.86
-0.05,-9.11,3.79,9.87,-5.27,-8.23,-1.45,9.88
-0.05,-9.06,3.80,9.83,-5.26,-8.26,-1.45,9.90
-0.04,-9.09,3.80,9.85,-5.26,-8.23,-1.48,9.87
-0.01,-9.06,3.81,9.83,-5.25,-8.21,-1.48,9.86
-0.01,-9.09,3.79,9.85,-5.22,-8.20,-1.47,9.84
-0.01,-9.11,3.80,9.87,-5.23,-8.21,-1.46,9.84
-0.02,-9.09,3.78,9.85,-5.27,-8.21,-1.47,9.87
-0.02,-9.10,3.80,9.86,-5.22,-8.23,-1.46,9.85
-0.03,-9.08,3.79,9.84,-5.28,-8.23,-1.49,9.89
-0.05,-9.07,3.80,9.83,-5.26,-8.22,-1.47,9.86
-0.06,-9.07,3.81,9.84,-5.26,-8.23,-1.45,9.87
-0.02,-9.09,3.81,9.86,-5.24,-8.23,-1.45,9.87
-0.06,-9.10,3.77,9.85,-5.28,-8.19,-1.46,9.86
-0.03,-9.07,3.78,9.83,-5.26,-8.19,-1.44,9.84
-0.04,-9.09,3.78,9.85,-5.25,-8.19,-1.48,9.84
-0.01,-9.10,3.78,9.85,-5.26,-8.22,-1.48,9.87
-0.01,-9.10,3.80,9.86,-5.26,-8.22,-1.47,9.86
-0.03,-9.10,3.79,9.86,-5.25,-8.24,-1.51,9.89
-0.02,-9.10,3.78,9.85,-5.24,-8.22,-1.48,9.86
-0.02,-9.08,3.79,9.84,-5.24,-8.25,-1.46,9.88
-0.02,-9.11,3.80,9.87,-5.21,-8.23,-1.49,9.85
-0.06,-9.10,3.78,9.86,-5.25,-8.23,-1.47,9.87
-0.05,-9.08,3.80,9.84,-5.26,-8.21,-1.45,9.86
-0.03,-9.09,3.79,9.85,-5.25,-8.22,-1.44,9.86
-0.03,-9.07,3.80,9.84,-5.25,-8.20,-1.45,9.84
-0.05,-9.11,3.81,9.87,-5.25,-8.21,-1.48,9.86
-0.03,-9.11,3.81,9.87,-5.26,-8.21,-1.47,9.86
-0.05,-9.10,3.81,9.86,-5.27,-8.24,-1.43,9.88
-0.02,-9.11,3.78,9.86,-5.27,-8.23,-1.43,9.88
-0.04,-9.09,3.83,9.86,-5.25,-8.22,-1.48,9.86
-0.01,-9.10,3.80,9.86,-5.20,-8.24,-1.48,9.85
-0.04,-9.08,3.80,9.84,-5.24,-8.23,-1.47,9.86
-0.04,-9.09,3.79,9.85,-5.25,-8.23,-1.45,9.87
-0.05,-9.08,3.80,9.84,-5.27,-8.19,-1.42,9.84
-0.01,-9.09,3.79,9.85,-5.24,-8.23,-1.44,9.86
-0.00,-9.07,3.77,9.82,-5.23,-8.22,-1.47,9.86
-0.04,-9.11,3.78,9.86,-5.25,-8.23,-1.46,9.87
-0.03,-9.10,3.78,9.86,-5.25,-8.24,-1.48,9.88
-0.04,-9.09,3.77,9.85,-5.27,-8.20,-1.44,9.86
-0.05,-9.10,3.78,9.85,-5.27,-8.22,-1.45,9.87
-0.03,-9.11,3.80,9.87,-5.27,-8.20,-1.47,9.86
-0.03,-9.07,3.80,9.83,-5.25,-8.23,-1.44,9.86
-0.02,-9.10,3.78,9.85,-5.28,-8.21,-1.42,9.87
-0.04,-9.09,3.78,9.85,-5.27,-8.22,-1.44,9.87
-0.03,-9.10,3.77,9.85,-5.25,-8.23,-1.45,9.87
-0.04,-9.10,3.79,9.85,-5.26,-8.24,-1.46,9.88
-0.03,-9.11,3.80,9.87,-5.26,-8.21,-1.44,9.86
-0.02,-9.12,3.79,9.87,-5.27,-8.21,-1.43,9.86
-0.05,-9.10,3.79,9.85,-5.25,-8.23,-1.45,9.86
-0.03,-9.10,3.78,9.85,-5.24,-8.23,-1.47,9.86
-0.02,-9.09,3.79,9.84,-5.23,-8.23,-1.45,9.86
-0.03,-9.09,3.79,9.85,-5.25,-8.21,-1.48,9.86
-0.04,-9.07,3.79,9.83,-5.26,-8.19,-1.49,9.85
-0.03,-9.07,3.79,9.83,-5.24,-8.22,-1.45,9.85
-0.03,-9.11,3.81,9.88,-5.25,-8.22,-1.45,9.86
-0.05,-9.11,3.79,9.87,-5.26,-8.25,-1.42,9.89
-0.04,-9.10,3.77,9.85,-5.25,-8.25,-1.49,9.89
-0.04,-9.07,3.80,9.84,-5.25,-8.25,-1.47,9.88
-0.02,-9.10,3.80,9.87,-5.24,-8.24,-1.47,9.88
-0.03,-9.10,3.80,9.86,-5.22,-8.22,-1.48,9.85
-0.05,-9.11,3.80,9.87,-5.24,-8.21,-1.47,9.84
-0.04,-9.09,3.80,9.85,-5.26,-8.19,-1.45,9.84
-0.04,-9.09,3.77,9.84,-5.25,-8.20,-1.46,9.85
-0.06,-9.12,3.79,9.88,-5.26,-8.20,-1.45,9.85
-0.03,-9.11,3.79,9.87,-5.27,-8.20,-1.45,9.86
-0.03,-9.10,3.80,9.86,-5.27,-8.22,-1.49,9.87
-0.03,-9.12,3.78,9.87,-5.25,-8.23,-1.47,9.87
-0.05,-9.12,3.79,9.87,-5.27,-8.23,-1.48,9.88
-0.01,-9.08,3.82,9.85,-5.25,-8.21,-1.47,9.86
-0.07,-9.08,3.78,9.84,-5.25,-8.20,-1.44,9.85
-0.06,-9.08,3.80,9.84,-5.25,-8.17,-1.49,9.83
-0.05,-9.08,3.79,9.84,-5.24,-8.23,-1.46,9.86
-0.03,-9.09,3.79,9.85,-5.25,-8.26,-1.45,9.89
-0.05,-9.09,3.79,9.85,-5.26,-8.23,-1.48,9.88
-0.04,-9.10,3.80,9.86,-5.26,-8.24,-1.46,9.88
-0.04,-9.07,3.81,9.84,-5.25,-8.23,-1.45,9.87
-0.01,-9.09,3.82,9.86,-5.24,-8.22,-1.43,9.85
-0.04,-9.09,3.82,9.86,-5.20,-8.23,-1.42,9.84
-0.04,-9.09,3.80,9.85,-5.24,-8.25,-1.45,9.88
-0.05,-9.10,3.80,9.86,-5.27,-8.21,-1.47,9.87
-0.03,-9.09,3.81,9.86,-5.24,-8.20,-1.46,9.84
-0.04,-9.11,3.82,9.88,-5.26,-8.25,-1.49,9.89
-0.02,-9.11,3.80,9.87,-5.24,-8.23,-1.48,9.87
-0.05,-9.11,3.80,9.87,-5.27,-8.19,-1.45,9.84
-0.03,-9.11,3.79,9.87,-5.24,-8.22,-1.48,9.86
-0.04,-9.08,3.79,9.83,-5.25,-8.21,-1.48,9.86
-0.02,-9.10,3.77,9.85,-5.27,-8.21,-1.45,9.87
-0.04,-9.08,3.76,9.83,-5.22,-8.24,-1.44,9.86
-0.04,-9.08,3.79,9.84,-5.28,-8.21,-1.48,9.87
-0.04,-9.10,3.79,9.86,-5.26,-8.22,-1.46,9.86
-0.05,-9.09,3.79,9.85,-5.24,-8.22,-1.48,9.86
-0.02,-9.12,3.79,9.88,-5.28,-8.21,-1.46,9.87
-0.05,-9.10,3.80,9.86,-5.26,-8.22,-1.48,9.87
-0.05,-9.09,3.79,9.85,-5.28,-8.23,-1.45,9.89
-0.05,-9.08,3.80,9.84,-5.25,-8.25,-1.46,9.89
-0.05,-9.09,3.81,9.85,-5.25,-8.20,-1.44,9.84
-0.03,-9.08,3.81,9.85,-5.24,-8.25,-1.46,9.88
-0.04,-9.10,3.79,9.86,-5.22,-8.21,-1.44,9.84
-0.01,-9.10,3.79,9.86,-5.24,-8.22,-1.47,9.86
-0.02,-9.08,3.80,9.85,-5.22,-8.26,-1.43,9.88
-0.02,-9.10,3.82,9.87,-5.22,-8.24,-1.45,9.86
-0.01,-9.08,3.81,9.85,-5.25,-8.21,-1.45,9.85
-0.04,-9.11,3.82,9.87,-5.24,-8.24,-1.47,9.87
-0.02,-9.11,3.82,9.88,-5.25,-8.23,-1.46,9.87
-0.05,-9.10,3.83,9.87,-5.23,-8.24,-1.45,9.86
-0.03,-9.09,3.80,9.85,-5.23,-8.26,-1.42,9.88
-0.03,-9.09,3.80,9.85,-5.24,-8.23,-1.46,9.87
-0.02,-9.08,3.79,9.84,-5.28,-8.22,-1.45,9.87
-0.03,-9.09,3.78,9.85,-5.27,-8.22,-1.44,9.87
-0.05,-9.09,3.79,9.85,-5.27,-8.21,-1.44,9.86
-0.03,-9.09,3.79,9.85,-5.24,-8.24,-1.45,9.88
-0.07,-9.10,3.81,9.87,-5.28,-8.19,-1.47,9.86
-0.03,-9.10,3.80,9.86,-5.23,-8.22,-1.48,9.86
-0.01,-9.10,3.78,9.85,-5.29,-8.21,-1.46,9.87
-0.03,-9.12,3.78,9.87,-5.23,-8.22,-1.45,9.85
-0.00,-9.09,3.78,9.84,-5.25,-8.22,-1.48,9.86
-0.01,-9.08,3.80,9.84,-5.24,-8.23,-1.51,9.87
-0.05,-9.09,3.80,9.86,-5.27,-8.21,-1.47,9.87
-0.01,-9.08,3.79,9.84,-5.24,-8.24,-1.45,9.87
-0.04,-9.09,3.78,9.85,-5.22,-8.21,-1.48,9.85
-0.04,-9.09,3.78,9.84,-5.24,-8.20,-1.46,9.84
-0.06,-9.11,3.80,9.87,-5.27,-8.23,-1.43,9.87
-0.04,-9.09,3.79,9.85,-5.25,-8.22,-1.43,9.86
-0.06,-9.10,3.79,9.86,-5.25,-8.24,-1.46,9.88
-0.03,-9.09,3.81,9.86,-5.25,-8.23,-1.44,9.87
-0.02,-9.10,3.82,9.87,-5.28,-8.22,-1.45,9.88
-0.01,-9.09,3.81,9.86,-5.26,-8.22,-1.47,9.87
-0.01,-9.09,3.80,9.85,-5.22,-8.25,-1.45,9.87
-0.01,-9.08,3.79,9.84,-5.26,-8.23,-1.46,9.87
-0.02,-9.08,3.81,9.85,-5.22,-8.22,-1.45,9.84
-0.03,-9.09,3.80,9.85,-5.26,-8.23,-1.45,9.87
-0.00,-9.11,3.79,9.87,-5.23,-8.23,-1.45,9.86
-0.02,-9.10,3.80,9.86,-5.26,-8.19,-1.46,9.84
-0.03,-9.09,3.77,9.84,-5.27,-8.23,-1.45,9.88
-0.03,-9.08,3.79,9.84,-5.26,-8.23,-1.46,9.87
-0.01,-9.09,3.78,9.84,-5.26,-8.22,-1.46,9.87
-0.01,-9.08,3.79,9.84,-5.26,-8.23,-1.43,9.87
-0.02,-9.09,3.76,9.83,-5.27,-8.20,-1.46,9.86
-0.05,-9.09,3.78,9.84,-5.27,-8.20,-1.44,9.85
-0.05,-9.12,3.78,9.87,-5.24,-8.23,-1.48,9.87
-0.07,-9.10,3.80,9.86,-5.24,-8.23,-1.48,9.87
-0.03,-9.11,3.81,9.88,-5.27,-8.21,-1.47,9.87
-0.03,-9.09,3.79,9.85,-5.26,-8.24,-1.48,9.89
-0.02,-9.08,3.80,9.84,-5.23,-8.26,-1.50,9.89
-0.02,-9.11,3.80,9.87,-5.27,-8.21,-1.46,9.86
-0.05,-9.11,3.80,9.87,-5.27,-8.21,-1.44,9.86
-0.04,-9.10,3.80,9.86,-5.23,-8.22,-1.47,9.85
-0.03,-9.11,3.81,9.88,-5.30,-8.21,-1.49,9.88
-0.02,-9.12,3.81,9.89,-5.25,-8.22,-1.46,9.86
-0.04,-9.13,3.81,9.89,-5.26,-8.22,-1.48,9.87
-0.01,-9.15,3.78,9.90,-5.21,-8.23,-1.44,9.85
-0.02,-9.16,3.80,9.92,-5.27,-8.21,-1.54,9.88
-0.05,-9.01,3.82,9.78,-5.26,-8.23,-1.39,9.86
-0.03,-9.11,3.80,9.87,-5.20,-8.22,-1.42,9.83
-0.04,-9.18,3.84,9.95,-5.28,-8.24,-1.51,9.91
-0.04,-9.12,3.84,9.89,-5.28,-8.28,-1.45,9.92
-0.04,-8.99,3.81,9.77,-5.17,-8.30,-1.39,9.88
-0.06,-9.13,3.82,9.90,-5.28,-8.25,-1.49,9.91
-0.03,-9.10,3.82,9.87,-5.28,-8.23,-1.44,9.88
-0.04,-9.07,3.80,9.83,-5.16,-8.23,-1.38,9.81
-0.03,-9.11,3.82,9.88,-5.29,-8.16,-1.46,9.83
-0.01,-9.06,3.81,9.83,-5.23,-8.22,-1.43,9.85
-0.03,-9.05,3.79,9.81,-5.17,-8.25,-1.44,9.84
0.00,-9.11,3.77,9.86,-5.26,-8.18,-1.52,9.84
-0.03,-9.10,3.78,9.86,-5.28,-8.25,-1.45,9.90
-0.04,-9.08,3.78,9.83,-5.21,-8.29,-1.44,9.90
-0.05,-9.14,3.75,9.88,-5.28,-8.23,-1.49,9.89
-0.03,-9.09,3.80,9.85,-5.31,-8.21,-1.49,9.89
-0.06,-9.06,3.75,9.80,-5.22,-8.24,-1.48,9.87
-0.03,-9.15,3.76,9.89,-5.30,-8.15,-1.48,9.83
-0.07,-9.12,3.78,9.87,-5.32,-8.15,-1.49,9.85
-0.06,-9.07,3.77,9.82,-5.26,-8.20,-1.40,9.84
-0.07,-9.13,3.77,9.88,-5.29,-8.19,-1.47,9.86
-0.07,-9.13,3.80,9.89,-5.31,-8.17,-1.45,9.86
-0.06,-9.06,3.77,9.81,-5.24,-8.26,-1.39,9.88
-0.06,-9.08,3.79,9.84,-5.23,-8.23,-1.45,9.86
-0.05,-9.12,3.80,9.88,-5.30,-8.20,-1.46,9.87
-0.03,-9.09,3.81,9.86,-5.25,-8.22,-1.43,9.86
-0.02,-9.07,3.81,9.84,-5.22,-8.24,-1.48,9.87
-0.02,-9.11,3.82,9.88,-5.25,-8.23,-1.49,9.87
-0.02,-9.07,3.82,9.84,-5.21,-8.25,-1.46,9.87
0.00,-9.08,3.82,9.85,-5.19,-8.27,-1.46,9.87
-0.01,-9.09,3.81,9.85,-5.25,-8.24,-1.48,9.88
0.00,-9.06,3.81,9.83,-5.22,-8.25,-1.44,9.87
-0.06,-9.09,3.79,9.85,-5.21,-8.23,-1.44,9.84
-0.02,-9.11,3.82,9.87,-5.26,-8.21,-1.47,9.86
-0.02,-9.10,3.81,9.86,-5.25,-8.22,-1.47,9.86
-0.03,-9.08,3.81,9.85,-5.23,-8.23,-1.46,9.86
-0.06,-9.13,3.81,9.89,-5.28,-8.19,-1.47,9.86
-0.07,-9.11,3.80,9.87,-5.31,-8.22,-1.46,9.89
-0.09,-9.09,3.78,9.84,-5.26,-8.23,-1.40,9.86
-0.06,-9.12,3.77,9.87,-5.29,-8.21,-1.48,9.88
-0.06,-9.13,3.78,9.88,-5.31,-8.19,-1.50,9.88
-0.06,-9.11,3.77,9.86,-5.27,-8.20,-1.45,9.85
-0.04,-9.11,3.78,9.86,-5.29,-8.19,-1.50,9.86
-0.02,-9.13,3.78,9.88,-5.26,-8.16,-1.44,9.81
-0.02,-9.09,3.77,9.84,-5.26,-8.17,-1.47,9.83
-0.01,-9.09,3.78,9.85,-5.24,-8.23,-1.49,9.87
-0.04,-9.09,3.79,9.85,-5.25,-8.23,-1.48,9.87
-0.02,-9.08,3.78,9.83,-5.25,-8.25,-1.43,9.88
-0.03,-9.08,3.79,9.84,-5.25,-8.23,-1.47,9.87
-0.01,-9.09,3.80,9.86,-5.22,-8.26,-1.48,9.88
-0.03,-9.08,3.81,9.85,-5.24,-8.23,-1.44,9.86
-0.04,-9.08,3.82,9.85,-5.24,-8.23,-1.43,9.86
-0.06,-9.08,3.82,9.85,-5.22,-8.21,-1.45,9.84
-0.06,-9.07,3.81,9.84,-5.23,-8.23,-1.41,9.86
-0.07,-9.07,3.81,9.84,-5.25,-8.22,-1.43,9.86
-0.05,-9.08,3.84,9.86,-5.26,-8.23,-1.41,9.87
-0.06,-9.09,3.82,9.86,-5.27,-8.22,-1.44,9.87
-0.03,-9.06,3.83,9.83,-5.27,-8.27,-1.44,9.91
-0.03,-9.07,3.80,9.83,-5.26,-8.23,-1.42,9.87
-0.05,-9.08,3.79,9.84,-5.25,-8.21,-1.48,9.86
-0.04,-9.10,3.79,9.86,-5.24,-8.20,-1.48,9.84
-0.02,-9.13,3.77,9.87,-5.27,-8.21,-1.47,9.87
-0.01,-9.13,3.81,9.89,-5.28,-8.21,-1.49,9.88
-0.04,-9.09,3.76,9.84,-5.26,-8.23,-1.49,9.88
-0.04,-9.11,3.76,9.85,-5.27,-8.21,-1.50,9.87
-0.05,-9.10,3.76,9.85,-5.25,-8.21,-1.46,9.86
-0.02,-9.15,3.77,9.90,-5.26,-8.21,-1.47,9.86
-0.04,-9.12,3.76,9.86,-5.28,-8.20,-1.46,9.87
-0.03,-9.13,3.78,9.88,-5.31,-8.19,-1.48,9.87
-0.04,-9.08,3.76,9.82,-5.24,-8.21,-1.48,9.85
-0.06,-9.12,3.78,9.87,-5.23,-8.21,-1.46,9.84
-0.04,-9.11,3.79,9.86,-5.27,-8.22,-1.44,9.87
-0.06,-9.08,3.81,9.84,-5.25,-8.23,-1.45,9.87
-0.04,-9.10,3.81,9.87,-5.26,-8.22,-1.46,9.87
-0.04,-9.11,3.81,9.87,-5.23,-8.23,-1.44,9.85
-0.02,-9.07,3.79,9.83,-5.22,-8.26,-1.44,9.87
-0.01,-9.07,3.83,9.85,-5.21,-8.23,-1.46,9.85
-0.01,-9.10,3.82,9.87,-5.24,-8.23,-1.46,9.87
0.00,-9.10,3.82,9.88,-5.24,-8.22,-1.46,9.86
-0.04,-9.08,3.83,9.85,-5.20,-8.26,-1.48,9.87
0.00,-9.07,3.83,9.84,-5.25,-8.25,-1.46,9.88
-0.02,-9.06,3.81,9.83,-5.24,-8.24,-1.46,9.87
-0.03,-9.11,3.80,9.87,-5.25,-8.21,-1.46,9.85
-0.03,-9.11,3.80,9.87,-5.28,-8.21,-1.45,9.87
-0.05,-9.10,3.79,9.86,-5.26,-8.22,-1.44,9.87
-0.05,-9.10,3.80,9.86,-5.27,-8.24,-1.45,9.89
-0.04,-9.11,3.79,9.86,-5.27,-8.22,-1.48,9.88
-0.07,-9.10,3.78,9.85,-5.27,-8.20,-1.48,9.86
-0.05,-9.12,3.77,9.87,-5.26,-8.20,-1.46,9.85
-0.06,-9.14,3.77,9.89,-5.31,-8.17,-1.44,9.85
-0.06,-9.12,3.77,9.86,-5.27,-8.18,-1.46,9.84
-0.04,-9.11,3.78,9.87,-5.27,-8.19,-1.49,9.86
-0.07,-9.12,3.75,9.86,-5.27,-8.21,-1.48,9.87
-0.03,-9.08,3.78,9.84,-5.27,-8.21,-1.47,9.87
-0.03,-9.08,3.76,9.83,-5.25,-8.25,-1.48,9.89
-0.04,-9.07,3.76,9.82,-5.26,-8.23,-1.51,9.88
-0.02,-9.10,3.81,9.87,-5.25,-8.22,-1.48,9.87
0.00,-9.11,3.80,9.87,-5.25,-8.20,-1.46,9.84
-0.04,-9.09,3.80,9.85,-5.25,-8.21,-1.47,9.85
-0.04,-9.07,3.80,9.84,-5.23,-8.23,-1.48,9.86
-0.03,-9.13,3.83,9.90,-5.27,-8.26,-1.42,9.90
-0.04,-9.09,3.83,9.86,-5.26,-8.24,-1.39,9.87
-0.05,-9.06,3.82,9.83,-5.24,-8.24,-1.42,9.87
-0.04,-9.08,3.83,9.85,-5.24,-8.24,-1.45,9.87
-0.02,-9.10,3.82,9.87,-5.25,-8.23,-1.40,9.87
-0.07,-9.07,3.81,9.84,-5.22,-8.25,-1.44,9.87
-0.04,-9.08,3.81,9.85,-5.25,-8.22,-1.42,9.86
-0.04,-9.06,3.84,9.84,-5.25,-8.22,-1.46,9.86
-0.04,-9.09,3.79,9.85,-5.24,-8.23,-1.45,9.87
-0.04,-9.11,3.79,9.87,-5.24,-8.20,-1.47,9.85
-0.02,-9.10,3.78,9.85,-5.27,-8.23,-1.45,9.88
-0.05,-9.12,3.76,9.86,-5.28,-8.21,-1.48,9.87
0.00,-9.10,3.77,9.85,-5.26,-8.21,-1.49,9.86
-0.02,-9.08,3.75,9.82,-5.28,-8.20,-1.47,9.86
-0.01,-9.08,3.77,9.83,-5.26,-8.19,-1.49,9.85
-0.06,-9.09,3.75,9.83,-5.27,-8.16,-1.51,9.83
-0.05,-9.09,3.77,9.84,-5.26,-8.20,-1.48,9.86
-0.05,-9.10,3.76,9.84,-5.29,-8.20,-1.50,9.87
-0.06,-9.11,3.79,9.87,-5.29,-8.19,-1.47,9.86
-0.04,-9.10,3.80,9.86,-5.27,-8.22,-1.46,9.87
-0.06,-9.10,3.81,9.86,-5.27,-8.23,-1.45,9.88
-0.07,-9.09,3.81,9.86,-5.29,-8.23,-1.42,9.89
-0.06,-9.07,3.80,9.83,-5.25,-8.26,-1.43,9.89
-0.03,-9.07,3.81,9.84,-5.18,-8.21,-1.46,9.82
-0.06,-9.09,3.82,9.86,-5.21,-8.18,-1.47,9.81
-0.02,-9.10,3.82,9.87,-5.26,-8.19,-1.45,9.84
-0.03,-9.09,3.81,9.86,-5.22,-8.22,-1.46,9.85
-0.02,-9.09,3.82,9.86,-5.22,-8.26,-1.45,9.88
-0.03,-9.09,3.83,9.86,-5.24,-8.29,-1.47,9.92
-0.02,-9.04,3.81,9.81,-5.21,-8.26,-1.47,9.88
-0.01,-9.07,3.83,9.84,-5.23,-8.23,-1.45,9.86
-0.03,-9.11,3.80,9.87,-5.25,-8.21,-1.47,9.86
-0.00,-9.07,3.80,9.84,-5.23,-8.23,-1.45,9.86
-0.02,-9.10,3.79,9.86,-5.27,-8.23,-1.48,9.88
-0.05,-9.10,3.77,9.85,-5.26,-8.21,-1.45,9.86
-0.04,-9.10,3.76,9.85,-5.25,-8.22,-1.51,9.87
-0.03,-9.10,3.77,9.85,-5.26,-8.22,-1.48,9.87
-0.05,-9.09,3.78,9.84,-5.29,-8.20,-1.46,9.86
-0.05,-9.10,3.78,9.85,-5.25,-8.22,-1.46,9.86
-0.04,-9.11,3.78,9.87,-5.26,-8.19,-1.43,9.84
-0.05,-9.10,3.77,9.85,-5.27,-8.21,-1.47,9.87
-0.04,-9.08,3.77,9.83,-5.25,-8.21,-1.48,9.86
0.00,-9.11,3.79,9.86,-5.26,-8.21,-1.48,9.86
-0.05,-9.09,3.78,9.85,-5.28,-8.22,-1.50,9.89
-0.01,-9.12,3.80,9.88,-5.26,-8.25,-1.48,9.90
-0.03,-9.11,3.81,9.87,-5.24,-8.23,-1.48,9.87
-0.03,-9.09,3.81,9.85,-5.25,-8.24,-1.45,9.87
-0.02,-9.11,3.80,9.87,-5.23,-8.24,-1.45,9.87
-0.03,-9.10,3.80,9.86,-5.25,-8.24,-1.46,9.88
-0.05,-9.10,3.80,9.86,-5.21,-8.24,-1.44,9.86
-0.04,-9.09,3.83,9.86,-5.24,-8.23,-1.43,9.86
-0.04,-9.10,3.82,9.87,-5.25,-8.25,-1.42,9.88
-0.02,-9.08,3.81,9.84,-5.24,-8.24,-1.43,9.86
-0.02,-9.09,3.81,9.85,-5.24,-8.25,-1.47,9.88
-0.03,-9.09,3.80,9.85,-5.28,-8.23,-1.45,9.88
-0.02,-9.07,3.81,9.84,-5.27,-8.23,-1.45,9.88
-0.05,-9.10,3.80,9.86,-5.27,-8.20,-1.47,9.85
-0.05,-9.10,3.81,9.87,-5.27,-8.21,-1.48,9.87
-0.04,-9.09,3.78,9.85,-5.27,-8.24,-1.44,9.89
-0.04,-9.12,3.79,9.88,-5.26,-8.20,-1.49,9.85
-0.04,-9.10,3.77,9.85,-5.29,-8.20,-1.45,9.87
-0.04,-9.12,3.77,9.87,-5.30,-8.23,-1.46,9.90
-0.05,-9.10,3.78,9.86,-5.27,-8.23,-1.51,9.88
-0.03,-9.11,3.74,9.85,-5.29,-8.22,-1.49,9.89
-0.04,-9.10,3.78,9.86,-5.27,-8.23,-1.50,9.89
-0.05,-9.12,3.78,9.88,-5.29,-8.20,-1.48,9.87
-0.05,-9.09,3.78,9.85,-5.27,-8.21,-1.44,9.86
-0.06,-9.11,3.80,9.87,-5.26,-8.20,-1.46,9.86
-0.04,-9.12,3.79,9.87,-5.27,-8.20,-1.46,9.85
-0.05,-9.08,3.82,9.85,-5.24,-8.22,-1.46,9.86
-0.05,-9.11,3.80,9.87,-5.28,-8.22,-1.46,9.87
-0.05,-9.07,3.83,9.85,-5.27,-8.21,-1.45,9.86
-0.05,-9.10,3.82,9.87,-5.25,-8.23,-1.43,9.86
-0.02,-9.08,3.82,9.85,-5.25,-8.25,-1.45,9.88
-0.03,-9.09,3.81,9.86,-5.22,-8.24,-1.48,9.87
-0.02,-9.08,3.82,9.85,-5.24,-8.25,-1.45,9.88
-0.03,-9.07,3.81,9.84,-5.26,-8.25,-1.45,9.89
-0.01,-9.09,3.83,9.87,-5.24,-8.23,-1.43,9.86
-0.02,-9.11,3.81,9.87,-5.24,-8.23,-1.45,9.86
-0.01,-9.09,3.80,9.85,-5.24,-8.24,-1.52,9.88
-0.02,-9.09,3.79,9.85,-5.25,-8.26,-1.47,9.89
-0.05,-9.09,3.78,9.84,-5.25,-8.20,-1.45,9.84
-0.03,-9.10,3.80,9.86,-5.24,-8.23,-1.47,9.87
-0.05,-9.10,3.78,9.85,-5.27,-8.24,-1.49,9.89
-0.06,-9.09,3.79,9.85,-5.31,-8.22,-1.46,9.89
-0.04,-9.09,3.78,9.85,-5.29,-8.22,-1.45,9.88
-0.03,-9.08,3.78,9.83,-5.29,-8.18,-1.46,9.85
-0.05,-9.07,3.77,9.82,-5.28,-8.17,-1.45,9.83
-0.05,-9.11,3.77,9.86,-5.30,-8.20,-1.46,9.87
-0.02,-9.08,3.78,9.83,-5.26,-8.22,-1.48,9.87
-0.01,-9.09,3.78,9.84,-5.27,-8.21,-1.47,9.87
-0.05,-9.10,3.80,9.86,-5.26,-8.25,-1.52,9.90
-0.02,-9.09,3.77,9.85,-5.28,-8.24,-1.46,9.89
-0.02,-9.11,3.78,9.87,-5.27,-8.24,-1.45,9.88
-0.03,-9.08,3.79,9.84,-5.24,-8.28,-1.47,9.91
-0.02,-9.09,3.81,9.85,-5.25,-8.24,-1.46,9.88
-0.03,-9.09,3.81,9.86,-5.22,-8.21,-1.46,9.84
-0.02,-9.11,3.81,9.87,-5.24,-8.22,-1.46,9.85
-0.06,-9.09,3.80,9.86,-5.25,-8.21,-1.46,9.85
-0.02,-9.08,3.81,9.84,-5.26,-8.23,-1.45,9.87
-0.03,-9.09,3.85,9.87,-5.29,-8.24,-1.44,9.89
-0.05,-9.08,3.82,9.86,-5.25,-8.24,-1.45,9.88
-0.05,-9.09,3.80,9.85,-5.25,-8.24,-1.43,9.87
-0.08,-9.09,3.79,9.85,-5.28,-8.22,-1.44,9.88
-0.06,-9.10,3.82,9.87,-5.27,-8.22,-1.45,9.87
-0.06,-9.12,3.80,9.88,-5.26,-8.23,-1.46,9.88
-0.05,-9.11,3.82,9.88,-5.27,-8.22,-1.42,9.87
-0.03,-9.07,3.80,9.83,-5.24,-8.24,-1.45,9.87
-0.01,-9.07,3.79,9.83,-5.21,-8.21,-1.48,9.84
-0.02,-9.11,3.78,9.86,-5.23,-8.21,-1.52,9.85
-0.03,-9.10,3.80,9.87,-5.25,-8.18,-1.51,9.84
-0.01,-9.12,3.78,9.87,-5.25,-8.20,-1.49,9.85
-0.02,-9.11,3.79,9.87,-5.25,-8.23,-1.46,9.87
-0.03,-9.05,3.76,9.80,-5.26,-8.23,-1.45,9.88
-0.06,-9.07,3.75,9.81,-5.28,-8.18,-1.45,9.85
-0.02,-9.12,3.79,9.87,-5.27,-8.19,-1.50,9.85
-0.04,-9.10,3.79,9.86,-5.28,-8.18,-1.47,9.85
-0.03,-9.13,3.81,9.90,-5.27,-8.20,-1.44,9.85
-0.06,-9.11,3.81,9.87,-5.30,-8.23,-1.41,9.89
-0.08,-9.07,3.80,9.83,-5.25,-8.27,-1.44,9.89
-0.01,-9.05,3.77,9.80,-5.24,-8.25,-1.46,9.88
-0.05,-9.07,3.78,9.83,-5.25,-8.21,-1.47,9.85
-0.06,-9.08,3.81,9.85,-5.25,-8.19,-1.46,9.84
-0.02,-9.12,3.81,9.88,-5.25,-8.22,-1.47,9.86
-0.04,-9.14,3.81,9.90,-5.27,-8.20,-1.44,9.86
-0.04,-9.08,3.81,9.84,-5.26,-8.23,-1.45,9.88
-0.02,-9.05,3.80,9.82,-5.23,-8.27,-1.48,9.90
-0.05,-9.11,3.82,9.88,-5.27,-8.22,-1.47,9.88
-0.02,-9.09,3.82,9.86,-5.23,-8.22,-1.43,9.85
-0.06,-9.10,3.80,9.86,-5.25,-8.21,-1.45,9.86
-0.05,-9.11,3.80,9.87,-5.29,-8.21,-1.45,9.87
-0.05,-9.07,3.80,9.84,-5.27,-8.23,-1.45,9.88
-0.04,-9.08,3.78,9.83,-5.24,-8.21,-1.47,9.85
-0.04,-9.09,3.80,9.85,-5.26,-8.20,-1.48,9.85
-0.04,-9.11,3.79,9.87,-5.27,-8.22,-1.46,9.87
-0.02,-9.14,3.81,9.90,-5.31,-8.23,-1.44,9.90
-0.02,-9.11,3.79,9.87,-5.28,-8.25,-1.45,9.90
-0.05,-9.07,3.79,9.83,-5.26,-8.23,-1.45,9.88
-0.04,-9.09,3.78,9.84,-5.24,-8.23,-1.50,9.87
-0.03,-9.09,3.78,9.84,-5.26,-8.21,-1.48,9.86
-0.05,-9.11,3.79,9.86,-5.30,-8.17,-1.50,9.86
-0.02,-9.11,3.78,9.86,-5.27,-8.22,-1.48,9.87
-0.06,-9.11,3.77,9.86,-5.30,-8.20,-1.47,9.88
-0.05,-9.10,3.78,9.85,-5.28,-8.20,-1.48,9.86
-0.03,-9.07,3.77,9.82,-5.25,-8.22,-1.46,9.86
-0.05,-9.09,3.79,9.85,-5.24,-8.22,-1.48,9.86
-0.02,-9.11,3.81,9.87,-5.25,-8.23,-1.51,9.87
-0.05,-9.09,3.83,9.86,-5.26,-8.21,-1.47,9.86
-0.05,-9.10,3.82,9.87,-5.23,-8.25,-1.43,9.87
-0.05,-9.09,3.82,9.86,-5.22,-8.25,-1.45,9.87
-0.05,-9.08,3.83,9.85,-5.27,-8.25,-1.46,9.90
-0.04,-9.08,3.83,9.85,-5.22,-8.22,-1.45,9.85
-0.07,-9.09,3.84,9.86,-5.26,-8.23,-1.44,9.87
-0.07,-9.09,3.81,9.86,-5.26,-8.21,-1.42,9.86
-0.04,-9.09,3.79,9.85,-5.26,-8.21,-1.44,9.85
-0.04,-9.08,3.78,9.84,-5.25,-8.22,-1.48,9.86
-0.01,-9.08,3.78,9.83,-5.27,-8.22,-1.45,9.87
-0.03,-9.10,3.79,9.86,-5.26,-8.21,-1.43,9.86
-0.05,-9.11,3.78,9.86,-5.27,-8.23,-1.48,9.88
-0.04,-9.09,3.78,9.85,-5.28,-8.22,-1.48,9.88
-0.04,-9.09,3.79,9.85,-5.28,-8.21,-1.46,9.87
