Ax,Ay,Az,Amag
-0.04,-9.62,2.11,9.85
-0.06,-9.63,2.14,9.86
-0.05,-9.62,2.12,9.85
-0.04,-9.60,2.15,9.84
-0.05,-9.60,2.15,9.84
-0.03,-9.59,2.13,9.82
-0.02,-9.60,2.14,9.84
-0.06,-9.62,2.12,9.85
-0.06,-9.60,2.12,9.83
-0.06,-9.58,2.13,9.82
-0.04,-9.60,2.15,9.83
-0.05,-9.60,2.20,9.84
-0.06,-9.59,2.23,9.85
-0.07,-9.58,2.23,9.83
-0.03,-9.62,2.27,9.89
-0.04,-9.61,2.26,9.87
-0.05,-9.60,2.26,9.87
-0.07,-9.62,2.26,9.88
-0.08,-9.63,2.24,9.89
-0.09,-9.61,2.25,9.87
-0.08,-9.65,2.22,9.90
-0.08,-9.63,2.22,9.89
-0.10,-9.60,2.25,9.86
-0.08,-9.57,2.23,9.83
-0.08,-9.57,2.22,9.82
-0.08,-9.53,2.24,9.79
-0.06,-9.56,2.24,9.82
-0.06,-9.55,2.27,9.82
-0.04,-9.60,2.30,9.88
-0.04,-9.62,2.33,9.90
-0.04,-9.64,2.34,9.92
-0.06,-9.57,2.33,9.85
-0.07,-9.55,2.27,9.81
-0.08,-9.53,2.26,9.80
-0.09,-9.55,2.25,9.81
-0.11,-9.56,2.29,9.83
-0.13,-9.56,2.28,9.83
-0.13,-9.61,2.34,9.89
-0.16,-9.61,2.37,9.90
-0.13,-9.60,2.37,9.89
-0.09,-9.60,2.35,9.88
-0.08,-9.57,2.35,9.86
-0.04,-9.60,2.34,9.88
-0.02,-9.58,2.32,9.86
-0.03,-9.57,2.32,9.84
-0.03,-9.56,2.33,9.84
-0.08,-9.61,2.36,9.90
-0.10,-9.58,2.33,9.86
-0.11,-9.59,2.32,9.87
-0.10,-9.56,2.34,9.84
-0.13,-9.52,2.31,9.80
-0.09,-9.54,2.33,9.82
-0.10,-9.49,2.32,9.77
-0.09,-9.51,2.33,9.79
-0.07,-9.49,2.35,9.77
-0.08,-9.51,2.36,9.80
-0.09,-9.53,2.39,9.82
-0.09,-9.54,2.40,9.84
-0.08,-9.55,2.40,9.85
-0.12,-9.56,2.42,9.87
-0.11,-9.57,2.43,9.87
-0.05,-9.56,2.43,9.86
-0.08,-9.54,2.43,9.85
-0.05,-9.54,2.43,9.84
-0.03,-9.54,2.42,9.84
-0.03,-9.58,2.43,9.89
-0.04,-9.56,2.44,9.87
-0.05,-9.58,2.48,9.90
-0.06,-9.58,2.48,9.90
-0.12,-9.55,2.52,9.88
-0.10,-9.57,2.51,9.90
-0.10,-9.55,2.49,9.87
-0.06,-9.51,2.46,9.82
-0.07,-9.52,2.44,9.83
-0.06,-9.49,2.42,9.80
-0.06,-9.50,2.44,9.81
-0.05,-9.51,2.41,9.81
-0.10,-9.50,2.41,9.80
-0.10,-9.49,2.41,9.79
-0.15,-9.52,2.43,9.82
-0.11,-9.52,2.44,9.83
-0.10,-9.56,2.43,9.86
-0.09,-9.55,2.47,9.86
-0.10,-9.58,2.48,9.90
-0.08,-9.60,2.49,9.92
-0.09,-9.58,2.49,9.90
-0.09,-9.59,2.49,9.91
-0.09,-9.53,2.52,9.86
-0.12,-9.53,2.50,9.86
-0.10,-9.52,2.50,9.85
-0.10,-9.50,2.50,9.83
-0.07,-9.50,2.47,9.82
-0.08,-9.47,2.48,9.79
-0.11,-9.47,2.46,9.79
-0.10,-9.48,2.46,9.80
-0.12,-9.50,2.48,9.82
-0.18,-9.49,2.50,9.81
-0.20,-9.52,2.49,9.84
-0.17,-9.55,2.58,9.89
-0.18,-9.56,2.63,9.92
-0.16,-9.55,2.64,9.91
-0.12,-9.53,2.64,9.89
-0.17,-9.47,2.63,9.83
-0.16,-9.47,2.64,9.83
-0.18,-9.46,2.64,9.82
-0.19,-9.46,2.63,9.83
-0.19,-9.47,2.65,9.83
-0.17,-9.45,2.65,9.82
-0.15,-9.50,2.67,9.87
-0.12,-9.48,2.66,9.85
-0.09,-9.49,2.66,9.86
-0.04,-9.50,2.66,9.86
-0.04,-9.50,2.63,9.85
-0.00,-9.55,2.64,9.91
-0.03,-9.60,2.67,9.96
-0.04,-9.58,2.70,9.95
-0.04,-9.56,2.71,9.94
-0.05,-9.52,2.68,9.89
-0.04,-9.50,2.66,9.86
-0.05,-9.43,2.62,9.79
-0.05,-9.40,2.64,9.77
-0.06,-9.43,2.64,9.80
-0.08,-9.43,2.70,9.81
-0.09,-9.47,2.72,9.85
-0.08,-9.48,2.72,9.86
-0.07,-9.53,2.67,9.90
-0.08,-9.54,2.65,9.90
-0.01,-9.56,2.67,9.92
-0.03,-9.53,2.63,9.88
0.01,-9.52,2.67,9.88
-0.02,-9.53,2.69,9.91
-0.06,-9.53,2.71,9.91
-0.07,-9.52,2.74,9.91
-0.10,-9.49,2.75,9.88
-0.11,-9.48,2.77,9.87
-0.12,-9.46,2.76,9.85
-0.12,-9.42,2.69,9.80
-0.12,-9.41,2.69,9.78
-0.09,-9.39,2.70,9.77
-0.10,-9.44,2.69,9.81
-0.09,-9.42,2.63,9.78
-0.10,-9.44,2.62,9.80
-0.10,-9.47,2.68,9.84
-0.12,-9.46,2.69,9.84
-0.12,-9.46,2.71,9.85
-0.08,-9.51,2.76,9.90
-0.09,-9.48,2.79,9.88
-0.09,-9.48,2.76,9.88
-0.06,-9.45,2.77,9.85
-0.06,-9.43,2.77,9.83
-0.07,-9.43,2.76,9.83
-0.12,-9.42,2.81,9.83
-0.15,-9.47,2.80,9.87
-0.14,-9.50,2.79,9.91
-0.15,-9.54,2.79,9.94
-0.13,-9.49,2.81,9.90
-0.10,-9.49,2.80,9.90
-0.10,-9.45,2.76,9.85
-0.09,-9.46,2.77,9.86
-0.13,-9.42,2.75,9.81
-0.12,-9.41,2.74,9.81
-0.13,-9.43,2.74,9.82
-0.15,-9.41,2.71,9.80
-0.13,-9.46,2.71,9.84
-0.13,-9.46,2.71,9.85
-0.11,-9.47,2.72,9.85
-0.09,-9.48,2.74,9.86
-0.10,-9.48,2.75,9.87
-0.12,-9.49,2.76,9.88
-0.10,-9.48,2.77,9.88
-0.11,-9.47,2.76,9.86
-0.15,-9.48,2.76,9.87
-0.17,-9.48,2.76,9.87
-0.12,-9.48,2.77,9.88
-0.14,-9.47,2.78,9.87
-0.10,-9.45,2.79,9.85
-0.11,-9.46,2.82,9.87
-0.12,-9.44,2.78,9.85
-0.09,-9.44,2.79,9.84
-0.11,-9.44,2.77,9.84
-0.10,-9.45,2.77,9.85
-0.11,-9.47,2.77,9.86
-0.14,-9.47,2.75,9.87
-0.13,-9.47,2.73,9.86
-0.11,-9.46,2.77,9.86
-0.11,-9.46,2.76,9.85
-0.09,-9.46,2.78,9.86
-0.10,-9.45,2.80,9.85
-0.10,-9.42,2.81,9.83
-0.10,-9.40,2.81,9.81
-0.11,-9.42,2.80,9.82
-0.09,-9.40,2.80,9.81
-0.12,-9.48,2.79,9.88
-0.13,-9.50,2.85,9.92
-0.13,-9.50,2.90,9.94
-0.11,-9.50,2.92,9.93
-0.11,-9.41,2.88,9.84
-0.13,-9.40,2.84,9.82
-0.13,-9.38,2.79,9.79
-0.11,-9.32,2.78,9.72
-0.15,-9.30,2.77,9.70
-0.19,-9.34,2.79,9.75
-0.17,-9.36,2.78,9.77
-0.18,-9.43,2.80,9.84
-0.13,-9.50,2.76,9.90
-0.11,-9.52,2.80,9.92
-0.06,-9.56,2.81,9.96
-0.03,-9.58,2.83,9.99
-0.05,-9.52,2.85,9.94
-0.06,-9.48,2.91,9.92
-0.12,-9.46,2.90,9.89
-0.15,-9.43,2.91,9.87
-0.16,-9.39,2.86,9.82
-0.16,-9.35,2.80,9.76
-0.15,-9.37,2.74,9.76
-0.17,-9.40,2.72,9.79
-0.17,-9.38,2.76,9.78
-0.16,-9.41,2.76,9.81
-0.12,-9.42,2.78,9.82
-0.12,-9.42,2.82,9.84
-0.11,-9.44,2.81,9.85
-0.13,-9.42,2.83,9.84
-0.12,-9.41,2.82,9.83
-0.15,-9.44,2.82,9.85
-0.15,-9.42,2.80,9.83
-0.16,-9.42,2.84,9.84
-0.12,-9.43,2.88,9.86
-0.08,-9.45,2.89,9.88
-0.11,-9.42,2.87,9.85
-0.12,-9.46,2.84,9.87
-0.12,-9.46,2.86,9.89
-0.17,-9.45,2.84,9.87
-0.18,-9.46,2.83,9.87
-0.17,-9.50,2.81,9.91
-0.19,-9.51,2.79,9.91
-0.16,-9.47,2.78,9.87
-0.11,-9.47,2.78,9.87
-0.09,-9.42,2.77,9.82
-0.09,-9.41,2.77,9.81
-0.06,-9.40,2.77,9.80
-0.06,-9.39,2.75,9.79
-0.17,-9.43,2.74,9.83
-0.16,-9.43,2.76,9.82
-0.17,-9.46,2.72,9.85
-0.14,-9.49,2.73,9.88
-0.12,-9.51,2.76,9.91
-0.10,-9.51,2.76,9.90
-0.04,-9.49,2.78,9.88
-0.02,-9.48,2.82,9.89
-0.03,-9.49,2.82,9.90
-0.09,-9.45,2.82,9.86
-0.10,-9.46,2.82,9.87
-0.14,-9.46,2.80,9.87
-0.10,-9.46,2.75,9.85
-0.07,-9.47,2.75,9.86
-0.08,-9.47,2.77,9.87
-0.06,-9.48,2.77,9.88
-0.05,-9.43,2.81,9.85
-0.08,-9.43,2.82,9.84
-0.07,-9.39,2.80,9.80
-0.07,-9.38,2.77,9.78
-0.08,-9.39,2.75,9.78
-0.07,-9.38,2.72,9.77
-0.07,-9.42,2.71,9.80
-0.06,-9.44,2.71,9.82
-0.08,-9.52,2.76,9.91
-0.10,-9.57,2.85,9.98
-0.09,-9.53,2.85,9.95
-0.12,-9.49,2.86,9.92
-0.12,-9.45,2.78,9.85
-0.15,-9.43,2.77,9.83
-0.16,-9.44,2.74,9.83
-0.14,-9.44,2.73,9.83
-0.16,-9.45,2.72,9.84
-0.19,-9.43,2.73,9.82
-0.19,-9.44,2.74,9.83
-0.15,-9.49,2.72,9.87
-0.12,-9.48,2.68,9.86
-0.09,-9.49,2.70,9.87
-0.05,-9.52,2.71,9.89
-0.00,-9.48,2.71,9.86
-0.06,-9.48,2.72,9.86
-0.05,-9.45,2.74,9.84
-0.10,-9.47,2.75,9.87
-0.09,-9.49,2.77,9.89
-0.11,-9.48,2.78,9.87
-0.12,-9.46,2.77,9.85
-0.11,-9.45,2.74,9.84
-0.13,-9.42,2.71,9.80
-0.12,-9.40,2.66,9.77
-0.10,-9.38,2.65,9.75
-0.13,-9.43,2.63,9.79
-0.11,-9.45,2.61,9.81
-0.10,-9.46,2.63,9.82
-0.11,-9.49,2.66,9.86
-0.14,-9.51,2.69,9.88
-0.12,-9.52,2.68,9.89
-0.11,-9.53,2.71,9.90
-0.12,-9.50,2.73,9.89
-0.11,-9.50,2.72,9.89
-0.10,-9.48,2.70,9.86
-0.09,-9.47,2.71,9.85
-0.06,-9.46,2.68,9.83
-0.05,-9.51,2.68,9.88
-0.06,-9.49,2.69,9.87
-0.11,-9.46,2.69,9.84
-0.14,-9.52,2.73,9.90
-0.12,-9.51,2.68,9.88
-0.14,-9.51,2.67,9.87
-0.13,-9.51,2.63,9.86
-0.12,-9.52,2.60,9.87
-0.07,-9.51,2.60,9.86
-0.09,-9.49,2.59,9.84
-0.08,-9.48,2.59,9.83
-0.09,-9.48,2.59,9.83
-0.11,-9.44,2.58,9.79
-0.13,-9.45,2.60,9.80
-0.12,-9.43,2.61,9.79
-0.14,-9.47,2.58,9.81
-0.14,-9.49,2.57,9.83
-0.12,-9.53,2.59,9.88
-0.08,-9.53,2.62,9.89
-0.09,-9.54,2.63,9.89
-0.10,-9.54,2.67,9.91
-0.07,-9.56,2.63,9.91
-0.08,-9.54,2.64,9.89
-0.05,-9.53,2.64,9.89
-0.09,-9.49,2.61,9.84
-0.08,-9.46,2.58,9.81
-0.11,-9.47,2.54,9.80
-0.13,-9.46,2.53,9.79
-0.12,-9.45,2.54,9.79
-0.15,-9.44,2.56,9.78
-0.16,-9.45,2.54,9.79
-0.14,-9.45,2.53,9.79
-0.14,-9.51,2.54,9.85
-0.10,-9.56,2.56,9.89
-0.08,-9.56,2.57,9.90
-0.06,-9.60,2.62,9.95
-0.10,-9.60,2.63,9.95
-0.09,-9.58,2.60,9.92
-0.10,-9.52,2.56,9.86
-0.11,-9.55,2.51,9.87
-0.15,-9.55,2.49,9.87
-0.13,-9.53,2.50,9.85
-0.12,-9.54,2.52,9.87
-0.16,-9.50,2.52,9.83
-0.14,-9.49,2.55,9.82
-0.14,-9.48,2.49,9.80
-0.16,-9.49,2.45,9.80
-0.12,-9.46,2.41,9.77
-0.09,-9.47,2.42,9.78
-0.09,-9.52,2.44,9.83
-0.07,-9.54,2.44,9.84
-0.04,-9.56,2.45,9.87
-0.05,-9.56,2.48,9.88
-0.06,-9.59,2.50,9.91
-0.06,-9.59,2.47,9.91
-0.09,-9.61,2.48,9.93
-0.13,-9.59,2.45,9.90
-0.12,-9.55,2.42,9.86
-0.13,-9.56,2.41,9.86
-0.10,-9.55,2.35,9.84
-0.09,-9.55,2.35,9.84
-0.08,-9.54,2.33,9.82
-0.10,-9.54,2.31,9.82
-0.11,-9.55,2.33,9.83
-0.11,-9.54,2.36,9.83
-0.12,-9.56,2.38,9.85
-0.12,-9.54,2.38,9.84
-0.13,-9.55,2.40,9.85
-0.14,-9.54,2.40,9.83
-0.11,-9.54,2.42,9.85
-0.13,-9.54,2.40,9.84
-0.09,-9.55,2.37,9.84
-0.09,-9.55,2.37,9.84
-0.07,-9.57,2.37,9.86
-0.14,-9.59,2.38,9.88
-0.12,-9.57,2.36,9.86
-0.13,-9.56,2.33,9.85
-0.14,-9.56,2.33,9.84
-0.16,-9.57,2.29,9.85
-0.15,-9.59,2.32,9.87
-0.15,-9.62,2.32,9.89
-0.10,-9.59,2.31,9.87
-0.14,-9.61,2.29,9.88
-0.11,-9.61,2.29,9.88
-0.10,-9.61,2.26,9.87
-0.08,-9.57,2.26,9.83
-0.10,-9.58,2.25,9.84
-0.14,-9.54,2.26,9.81
-0.12,-9.53,2.23,9.78
-0.11,-9.52,2.23,9.78
-0.10,-9.52,2.22,9.78
-0.10,-9.56,2.23,9.81
-0.07,-9.58,2.23,9.83
-0.09,-9.60,2.26,9.86
-0.10,-9.63,2.29,9.90
-0.10,-9.61,2.32,9.88
-0.11,-9.61,2.34,9.89
-0.12,-9.62,2.37,9.90
-0.12,-9.59,2.35,9.88
-0.11,-9.61,2.33,9.89
-0.15,-9.58,2.30,9.85
-0.11,-9.60,2.29,9.88
-0.12,-9.55,2.28,9.82
-0.10,-9.53,2.31,9.81
-0.11,-9.54,2.28,9.81
-0.10,-9.52,2.28,9.79
-0.12,-9.52,2.25,9.79
-0.12,-9.54,2.27,9.80
-0.10,-9.54,2.27,9.81
-0.11,-9.55,2.28,9.82
-0.11,-9.56,2.28,9.83
-0.13,-9.55,2.27,9.82
-0.11,-9.59,2.24,9.85
-0.13,-9.60,2.23,9.86
-0.14,-9.62,2.26,9.88
-0.14,-9.65,2.31,9.92
-0.10,-9.66,2.33,9.94
-0.06,-9.69,2.35,9.97
-0.09,-9.67,2.41,9.97
-0.08,-9.62,2.39,9.91
-0.13,-9.54,2.34,9.82
-0.11,-9.51,2.29,9.78
-0.09,-9.51,2.24,9.77
-0.12,-9.53,2.24,9.79
-0.13,-9.55,2.24,9.81
-0.16,-9.56,2.29,9.83
-0.18,-9.57,2.29,9.84
-0.18,-9.58,2.31,9.86
-0.16,-9.58,2.26,9.84
-0.11,-9.58,2.26,9.84
-0.10,-9.55,2.27,9.82
-0.06,-9.61,2.30,9.88
-0.05,-9.62,2.27,9.88
-0.05,-9.63,2.26,9.89
-0.09,-9.59,2.29,9.86
-0.11,-9.60,2.31,9.87
-0.12,-9.61,2.30,9.88
-0.13,-9.61,2.30,9.88
-0.13,-9.59,2.29,9.86
-0.14,-9.58,2.29,9.85
-0.12,-9.57,2.23,9.83
-0.08,-9.58,2.24,9.84
-0.11,-9.58,2.22,9.84
-0.16,-9.54,2.21,9.80
-0.15,-9.54,2.21,9.79
-0.16,-9.54,2.23,9.80
-0.13,-9.54,2.26,9.80
-0.13,-9.56,2.28,9.82
-0.13,-9.57,2.26,9.83
-0.10,-9.59,2.28,9.85
-0.11,-9.59,2.28,9.86
-0.09,-9.57,2.30,9.84
-0.09,-9.58,2.30,9.85
-0.07,-9.63,2.29,9.89
-0.11,-9.63,2.33,9.91
-0.12,-9.59,2.29,9.86
-0.15,-9.62,2.28,9.89
-0.13,-9.60,2.25,9.86
-0.15,-9.59,2.23,9.84
-0.17,-9.58,2.26,9.84
-0.15,-9.62,2.24,9.88
-0.13,-9.60,2.26,9.87
-0.13,-9.59,2.28,9.86
-0.12,-9.58,2.25,9.84
-0.10,-9.59,2.23,9.85
-0.08,-9.59,2.24,9.85
-0.09,-9.57,2.22,9.83
-0.08,-9.56,2.24,9.82
-0.12,-9.57,2.23,9.83
-0.12,-9.56,2.22,9.81
-0.14,-9.56,2.21,9.81
-0.10,-9.57,2.22,9.83
-0.12,-9.57,2.23,9.83
-0.10,-9.57,2.25,9.83
-0.09,-9.57,2.23,9.82
-0.08,-9.61,2.27,9.88
-0.11,-9.61,2.25,9.87
-0.08,-9.63,2.27,9.89
-0.12,-9.61,2.29,9.88
-0.10,-9.60,2.30,9.87
-0.09,-9.60,2.30,9.87
-0.10,-9.60,2.27,9.87
-0.08,-9.58,2.27,9.85
-0.05,-9.57,2.24,9.83
-0.09,-9.55,2.23,9.80
-0.12,-9.54,2.24,9.81
-0.13,-9.52,2.25,9.78
-0.16,-9.51,2.24,9.77
-0.15,-9.57,2.27,9.84
-0.12,-9.56,2.27,9.82
-0.10,-9.62,2.27,9.89
-0.12,-9.60,2.27,9.86
-0.11,-9.62,2.26,9.88
-0.11,-9.61,2.27,9.88
-0.09,-9.62,2.29,9.89
-0.07,-9.61,2.26,9.87
-0.10,-9.59,2.27,9.85
-0.10,-9.58,2.29,9.85
-0.11,-9.57,2.26,9.83
-0.10,-9.55,2.28,9.82
-0.09,-9.56,2.26,9.82
-0.10,-9.58,2.28,9.85
-0.11,-9.59,2.26,9.85
-0.12,-9.59,2.24,9.85
-0.14,-9.56,2.24,9.82
-0.08,-9.60,2.25,9.86
-0.09,-9.64,2.24,9.90
-0.06,-9.65,2.27,9.92
-0.06,-9.66,2.33,9.94
-0.08,-9.67,2.33,9.95
-0.10,-9.60,2.33,9.88
-0.07,-9.57,2.28,9.83
-0.09,-9.55,2.26,9.81
-0.11,-9.54,2.22,9.79
-0.16,-9.54,2.23,9.80
-0.13,-9.56,2.25,9.82
-0.18,-9.56,2.28,9.83
-0.17,-9.53,2.31,9.81
-0.18,-9.55,2.30,9.83
-0.14,-9.54,2.27,9.81
-0.10,-9.57,2.23,9.82
-0.09,-9.60,2.24,9.86
-0.05,-9.60,2.24,9.85
-0.06,-9.62,2.26,9.89
-0.07,-9.62,2.28,9.88
-0.08,-9.62,2.30,9.89
-0.10,-9.63,2.31,9.90
-0.12,-9.61,2.34,9.90
-0.15,-9.59,2.29,9.86
-0.19,-9.59,2.26,9.86
-0.17,-9.58,2.26,9.85
-0.17,-9.55,2.22,9.81
-0.14,-9.57,2.24,9.83
-0.12,-9.53,2.22,9.79
-0.12,-9.54,2.25,9.81
-0.12,-9.52,2.22,9.78
-0.11,-9.50,2.26,9.76
-0.15,-9.55,2.27,9.81
-0.15,-9.53,2.24,9.79
-0.12,-9.53,2.23,9.79
-0.10,-9.60,2.25,9.86
-0.08,-9.60,2.28,9.87
-0.10,-9.59,2.28,9.86
-0.08,-9.59,2.31,9.87
-0.08,-9.62,2.30,9.90
-0.10,-9.65,2.29,9.91
-0.08,-9.63,2.32,9.91
-0.08,-9.62,2.30,9.89
-0.15,-9.61,2.27,9.88
-0.13,-9.57,2.21,9.82
-0.16,-9.57,2.23,9.83
-0.14,-9.57,2.21,9.82
-0.12,-9.57,2.20,9.83
-0.11,-9.58,2.23,9.83
-0.11,-9.58,2.23,9.83
-0.08,-9.56,2.26,9.82
-0.09,-9.58,2.26,9.84
-0.06,-9.56,2.23,9.82
-0.08,-9.54,2.24,9.80
-0.11,-9.56,2.25,9.82
-0.12,-9.56,2.25,9.82
-0.13,-9.58,2.24,9.83
-0.11,-9.57,2.21,9.83
-0.12,-9.57,2.21,9.83
-0.12,-9.60,2.26,9.86
-0.13,-9.60,2.24,9.85
-0.12,-9.61,2.26,9.88
-0.10,-9.63,2.29,9.90
-0.11,-9.62,2.30,9.89
-0.12,-9.63,2.28,9.90
-0.10,-9.61,2.27,9.88
-0.11,-9.62,2.25,9.88
-0.09,-9.60,2.23,9.86
-0.10,-9.58,2.23,9.83
-0.10,-9.58,2.23,9.84
-0.13,-9.60,2.21,9.85
-0.10,-9.56,2.21,9.81
-0.10,-9.59,2.26,9.85
-0.12,-9.57,2.29,9.84
-0.11,-9.56,2.26,9.83
-0.10,-9.56,2.28,9.83
-0.09,-9.59,2.27,9.85
-0.06,-9.58,2.26,9.84
-0.12,-9.58,2.25,9.84
-0.10,-9.59,2.26,9.85
-0.12,-9.57,2.25,9.83
-0.09,-9.58,2.23,9.84
-0.09,-9.59,2.23,9.85
-0.08,-9.58,2.23,9.84
-0.12,-9.60,2.26,9.86
-0.12,-9.58,2.23,9.84
-0.11,-9.58,2.25,9.84
-0.12,-9.57,2.22,9.83
-0.13,-9.59,2.22,9.84
-0.11,-9.61,2.24,9.87
-0.08,-9.62,2.25,9.88
-0.08,-9.66,2.31,9.93
-0.10,-9.65,2.32,9.93
-0.09,-9.64,2.31,9.91
-0.05,-9.57,2.28,9.84
-0.06,-9.58,2.27,9.84
-0.09,-9.57,2.20,9.82
-0.09,-9.56,2.20,9.81
-0.11,-9.54,2.20,9.80
-0.14,-9.55,2.23,9.81
-0.16,-9.56,2.25,9.82
-0.16,-9.56,2.30,9.84
-0.15,-9.58,2.25,9.84
-0.12,-9.57,2.23,9.82
-0.10,-9.58,2.23,9.83
-0.06,-9.60,2.22,9.85
-0.05,-9.59,2.20,9.84
-0.06,-9.61,2.20,9.86
-0.09,-9.62,2.23,9.88
-0.09,-9.63,2.25,9.89
-0.11,-9.66,2.22,9.91
-0.12,-9.66,2.24,9.92
-0.13,-9.64,2.26,9.90
-0.12,-9.60,2.25,9.86
-0.15,-9.60,2.23,9.85
-0.10,-9.57,2.22,9.83
-0.12,-9.55,2.18,9.79
-0.09,-9.53,2.20,9.78
-0.13,-9.54,2.20,9.79
-0.11,-9.55,2.21,9.80
-0.10,-9.56,2.23,9.82
-0.11,-9.57,2.23,9.82
-0.11,-9.55,2.26,9.82
-0.13,-9.60,2.26,9.86
-0.12,-9.58,2.26,9.84
-0.11,-9.60,2.27,9.86
-0.11,-9.62,2.29,9.89
-0.09,-9.59,2.27,9.85
-0.10,-9.62,2.28,9.88
-0.07,-9.65,2.25,9.90
-0.06,-9.66,2.24,9.92
-0.09,-9.62,2.25,9.88
-0.11,-9.60,2.24,9.86
-0.12,-9.57,2.23,9.82
-0.14,-9.57,2.21,9.82
-0.13,-9.55,2.24,9.81
-0.11,-9.57,2.25,9.83
-0.07,-9.59,2.24,9.85
-0.08,-9.62,2.27,9.88
-0.06,-9.61,2.26,9.87
-0.07,-9.62,2.25,9.88
-0.06,-9.61,2.26,9.87
-0.09,-9.57,2.23,9.83
-0.12,-9.56,2.25,9.82
-0.13,-9.53,2.24,9.79
-0.14,-9.56,2.23,9.81
-0.11,-9.53,2.25,9.80
-0.15,-9.53,2.24,9.79
-0.14,-9.55,2.30,9.82
-0.13,-9.56,2.32,9.84
-0.12,-9.62,2.34,9.90
-0.07,-9.62,2.32,9.89
-0.09,-9.61,2.35,9.89
-0.09,-9.60,2.34,9.88
-0.08,-9.61,2.35,9.90
-0.07,-9.56,2.32,9.84
-0.09,-9.55,2.31,9.82
-0.10,-9.52,2.31,9.80
-0.08,-9.53,2.31,9.81
-0.10,-9.49,2.31,9.77
-0.10,-9.52,2.33,9.80
-0.08,-9.52,2.36,9.81
-0.11,-9.54,2.35,9.82
-0.10,-9.58,2.38,9.87
-0.09,-9.58,2.40,9.88
-0.10,-9.58,2.43,9.88
-0.08,-9.59,2.36,9.88
-0.09,-9.58,2.40,9.88
-0.10,-9.59,2.42,9.89
-0.10,-9.60,2.39,9.89
-0.08,-9.57,2.37,9.85
-0.10,-9.57,2.39,9.87
-0.12,-9.59,2.37,9.88
-0.11,-9.55,2.36,9.84
-0.10,-9.55,2.38,9.84
-0.12,-9.53,2.38,9.82
-0.10,-9.51,2.37,9.80
-0.12,-9.53,2.39,9.82
-0.08,-9.57,2.40,9.86
-0.08,-9.59,2.46,9.90
-0.07,-9.66,2.49,9.97
-0.11,-9.63,2.53,9.95
-0.09,-9.62,2.52,9.94
-0.10,-9.55,2.46,9.86
-0.09,-9.52,2.42,9.82
-0.10,-9.49,2.39,9.78
-0.13,-9.48,2.43,9.79
-0.15,-9.46,2.46,9.77
-0.17,-9.48,2.49,9.80
-0.18,-9.47,2.48,9.79
-0.17,-9.52,2.49,9.84
-0.15,-9.54,2.46,9.85
-0.12,-9.54,2.44,9.85
-0.09,-9.54,2.46,9.85
-0.03,-9.57,2.47,9.89
-0.04,-9.55,2.49,9.87
-0.07,-9.58,2.53,9.91
-0.07,-9.59,2.55,9.92
-0.11,-9.57,2.56,9.91
-0.13,-9.55,2.53,9.88
-0.14,-9.52,2.53,9.86
-0.12,-9.53,2.50,9.86
-0.13,-9.50,2.45,9.82
-0.11,-9.51,2.44,9.81
-0.14,-9.47,2.45,9.78
-0.13,-9.48,2.45,9.80
-0.12,-9.49,2.44,9.79
-0.11,-9.51,2.48,9.83
-0.09,-9.50,2.47,9.82
-0.12,-9.49,2.49,9.81
-0.13,-9.50,2.49,9.82
-0.14,-9.47,2.51,9.80
-0.08,-9.49,2.53,9.82
-0.12,-9.49,2.49,9.82
-0.11,-9.51,2.50,9.83
-0.10,-9.51,2.51,9.83
-0.09,-9.53,2.51,9.86
-0.10,-9.54,2.50,9.87
-0.12,-9.59,2.56,9.92
-0.16,-9.61,2.61,9.96
-0.16,-9.59,2.66,9.95
-0.14,-9.58,2.62,9.94
-0.12,-9.57,2.62,9.92
-0.09,-9.54,2.60,9.89
-0.09,-9.50,2.60,9.85
-0.09,-9.51,2.59,9.85
-0.08,-9.50,2.56,9.84
-0.08,-9.46,2.54,9.80
-0.10,-9.48,2.54,9.82
-0.08,-9.46,2.54,9.80
-0.12,-9.48,2.53,9.81
-0.08,-9.49,2.54,9.83
-0.13,-9.47,2.51,9.80
-0.11,-9.50,2.52,9.83
-0.12,-9.51,2.56,9.85
-0.08,-9.50,2.59,9.84
-0.08,-9.54,2.63,9.90
-0.09,-9.54,2.67,9.90
-0.08,-9.54,2.65,9.90
-0.09,-9.54,2.66,9.90
-0.09,-9.50,2.68,9.88
-0.11,-9.51,2.67,9.88
-0.11,-9.48,2.64,9.84
-0.11,-9.46,2.63,9.82
-0.11,-9.49,2.60,9.84
-0.15,-9.45,2.62,9.81
-0.14,-9.43,2.63,9.79
-0.12,-9.45,2.63,9.81
-0.13,-9.44,2.65,9.81
-0.12,-9.46,2.66,9.83
-0.11,-9.47,2.66,9.84
-0.13,-9.49,2.66,9.85
-0.14,-9.48,2.67,9.85
-0.11,-9.48,2.64,9.85
-0.15,-9.50,2.67,9.87
-0.14,-9.50,2.67,9.87
-0.10,-9.51,2.67,9.88
-0.10,-9.51,2.69,9.88
-0.13,-9.55,2.69,9.92
-0.14,-9.50,2.71,9.88
-0.10,-9.47,2.70,9.85
-0.12,-9.47,2.70,9.85
-0.12,-9.44,2.72,9.82
-0.10,-9.44,2.74,9.83
-0.10,-9.48,2.74,9.87
-0.12,-9.50,2.80,9.91
-0.11,-9.50,2.87,9.92
-0.10,-9.50,2.86,9.92
-0.09,-9.44,2.83,9.85
-0.14,-9.40,2.75,9.80
-0.13,-9.40,2.73,9.79
-0.15,-9.38,2.73,9.77
-0.14,-9.40,2.74,9.79
-0.14,-9.44,2.74,9.83
-0.14,-9.42,2.77,9.82
-0.14,-9.50,2.77,9.89
-0.14,-9.51,2.76,9.90
-0.11,-9.52,2.71,9.90
-0.10,-9.51,2.72,9.89
-0.10,-9.51,2.73,9.89
-0.09,-9.49,2.73,9.88
-0.07,-9.47,2.78,9.87
-0.09,-9.48,2.81,9.89
-0.09,-9.53,2.85,9.94
-0.10,-9.49,2.84,9.91
-0.13,-9.47,2.83,9.89
-0.15,-9.43,2.79,9.84
-0.14,-9.40,2.75,9.80
-0.14,-9.37,2.73,9.76
-0.13,-9.38,2.69,9.76
-0.15,-9.39,2.69,9.76
-0.14,-9.44,2.72,9.83
-0.14,-9.42,2.72,9.81
-0.15,-9.46,2.73,9.85
-0.12,-9.47,2.77,9.87
-0.10,-9.44,2.79,9.85
-0.13,-9.47,2.80,9.87
-0.11,-9.45,2.81,9.85
-0.11,-9.43,2.83,9.85
-0.08,-9.41,2.82,9.83
-0.08,-9.45,2.81,9.86
-0.08,-9.46,2.82,9.87
-0.10,-9.44,2.86,9.87
-0.13,-9.46,2.85,9.89
-0.13,-9.49,2.82,9.90
-0.14,-9.46,2.82,9.88
-0.12,-9.46,2.79,9.86
-0.12,-9.46,2.74,9.85
-0.09,-9.43,2.75,9.83
-0.09,-9.45,2.72,9.83
-0.06,-9.42,2.74,9.81
-0.11,-9.43,2.75,9.82
-0.12,-9.42,2.75,9.81
-0.14,-9.43,2.77,9.83
-0.11,-9.45,2.76,9.84
-0.12,-9.44,2.77,9.84
-0.13,-9.43,2.76,9.82
-0.13,-9.46,2.77,9.86
-0.12,-9.45,2.75,9.84
-0.12,-9.46,2.74,9.85
-0.11,-9.45,2.77,9.85
-0.13,-9.47,2.77,9.87
-0.13,-9.48,2.80,9.89
-0.14,-9.46,2.81,9.87
-0.14,-9.46,2.79,9.86
-0.13,-9.48,2.79,9.88
-0.12,-9.45,2.78,9.85
-0.08,-9.44,2.74,9.83
-0.13,-9.42,2.74,9.82
-0.11,-9.46,2.71,9.84
-0.12,-9.43,2.73,9.81
-0.15,-9.45,2.76,9.84
-0.12,-9.44,2.76,9.84
-0.12,-9.45,2.75,9.84
-0.14,-9.46,2.74,9.85
-0.11,-9.45,2.75,9.84
-0.13,-9.46,2.74,9.85
-0.11,-9.48,2.71,9.86
-0.12,-9.48,2.73,9.86
-0.14,-9.47,2.75,9.86
-0.13,-9.47,2.76,9.87
-0.13,-9.47,2.73,9.86
-0.14,-9.46,2.74,9.85
-0.14,-9.48,2.73,9.86
-0.10,-9.52,2.75,9.91
-0.08,-9.56,2.77,9.95
-0.05,-9.54,2.81,9.95
-0.10,-9.53,2.87,9.95
-0.10,-9.45,2.83,9.86
-0.09,-9.43,2.79,9.83
-0.10,-9.37,2.71,9.76
-0.11,-9.36,2.68,9.74
-0.09,-9.39,2.69,9.76
-0.12,-9.40,2.70,9.78
-0.12,-9.41,2.73,9.80
-0.11,-9.45,2.75,9.84
-0.13,-9.51,2.73,9.89
-0.11,-9.52,2.70,9.89
-0.08,-9.51,2.67,9.87
-0.06,-9.54,2.68,9.91
-0.03,-9.53,2.70,9.90
-0.06,-9.54,2.68,9.91
-0.06,-9.53,2.72,9.91
-0.04,-9.53,2.74,9.92
-0.08,-9.53,2.78,9.93
-0.13,-9.50,2.76,9.89
-0.14,-9.48,2.77,9.88
-0.14,-9.44,2.73,9.83
-0.14,-9.39,2.68,9.76
-0.14,-9.36,2.63,9.72
-0.11,-9.37,2.61,9.73
-0.11,-9.41,2.59,9.76
-0.09,-9.42,2.58,9.77
-0.08,-9.46,2.57,9.81
-0.14,-9.48,2.62,9.84
-0.14,-9.52,2.63,9.87
-0.14,-9.53,2.66,9.89
-0.14,-9.51,2.70,9.89
-0.13,-9.51,2.67,9.88
-0.11,-9.48,2.71,9.86
-0.08,-9.49,2.68,9.86
-0.06,-9.50,2.67,9.86
-0.11,-9.51,2.65,9.87
-0.08,-9.52,2.67,9.89
-0.09,-9.50,2.67,9.87
-0.11,-9.51,2.69,9.88
-0.14,-9.50,2.67,9.87
-0.15,-9.51,2.64,9.87
-0.14,-9.50,2.64,9.87
-0.12,-9.47,2.59,9.82
-0.10,-9.50,2.59,9.84
-0.07,-9.50,2.58,9.85
-0.08,-9.51,2.57,9.85
-0.09,-9.47,2.57,9.81
-0.09,-9.47,2.59,9.82
-0.13,-9.48,2.59,9.83
-0.11,-9.47,2.56,9.81
-0.13,-9.51,2.58,9.85
-0.16,-9.51,2.59,9.86
-0.11,-9.50,2.57,9.84
-0.11,-9.52,2.60,9.87
-0.12,-9.54,2.57,9.88
-0.12,-9.53,2.60,9.88
-0.11,-9.56,2.61,9.91
-0.14,-9.57,2.60,9.92
-0.08,-9.54,2.62,9.89
-0.12,-9.52,2.61,9.87
-0.11,-9.50,2.60,9.85
-0.08,-9.47,2.56,9.82
-0.10,-9.44,2.52,9.78
-0.12,-9.47,2.53,9.80
-0.11,-9.49,2.53,9.83
-0.13,-9.49,2.54,9.83
-0.13,-9.50,2.54,9.83
-0.11,-9.54,2.57,9.88
-0.09,-9.57,2.57,9.91
-0.11,-9.56,2.57,9.90
-0.08,-9.54,2.55,9.88
-0.08,-9.53,2.52,9.86
-0.12,-9.54,2.52,9.86
-0.12,-9.51,2.49,9.83
-0.13,-9.49,2.48,9.81
-0.15,-9.49,2.47,9.81
-0.14,-9.47,2.47,9.79
-0.13,-9.50,2.47,9.81
-0.12,-9.50,2.47,9.81
-0.07,-9.56,2.53,9.89
-0.09,-9.58,2.55,9.92
-0.10,-9.60,2.59,9.95
-0.08,-9.58,2.60,9.93
-0.09,-9.57,2.60,9.92
-0.09,-9.53,2.53,9.86
-0.11,-9.51,2.48,9.83
-0.11,-9.51,2.48,9.83
-0.11,-9.49,2.48,9.81
-0.09,-9.55,2.52,9.88
-0.11,-9.52,2.50,9.84
-0.12,-9.52,2.52,9.85
-0.11,-9.53,2.47,9.85
-0.14,-9.51,2.43,9.82
-0.12,-9.52,2.41,9.82
-0.06,-9.52,2.42,9.82
-0.08,-9.54,2.43,9.84
-0.05,-9.54,2.45,9.85
-0.07,-9.56,2.47,9.88
-0.07,-9.57,2.51,9.89
-0.04,-9.56,2.49,9.88
-0.08,-9.53,2.49,9.85
-0.08,-9.52,2.47,9.84
-0.13,-9.48,2.44,9.79
-0.11,-9.50,2.41,9.80
-0.12,-9.52,2.39,9.82
-0.14,-9.51,2.36,9.80
-0.11,-9.55,2.34,9.83
-0.13,-9.55,2.37,9.85
-0.13,-9.57,2.39,9.86
-0.14,-9.58,2.40,9.87
-0.10,-9.59,2.40,9.88
-0.13,-9.53,2.43,9.84
-0.10,-9.55,2.43,9.86
-0.08,-9.54,2.42,9.84
-0.12,-9.54,2.44,9.85
-0.12,-9.53,2.43,9.84
-0.11,-9.53,2.44,9.84
-0.10,-9.54,2.45,9.85
-0.09,-9.56,2.42,9.86
-0.09,-9.58,2.44,9.89
-0.11,-9.58,2.46,9.89
-0.11,-9.57,2.45,9.88
-0.15,-9.56,2.41,9.86
-0.13,-9.55,2.40,9.85
-0.11,-9.58,2.39,9.87
-0.11,-9.57,2.41,9.87
-0.11,-9.52,2.40,9.82
-0.12,-9.56,2.37,9.85
-0.10,-9.54,2.37,9.83
-0.11,-9.51,2.36,9.80
-0.11,-9.51,2.35,9.79
-0.11,-9.49,2.39,9.79
-0.13,-9.49,2.37,9.78
-0.15,-9.52,2.35,9.81
-0.14,-9.53,2.34,9.81
-0.14,-9.54,2.37,9.83
-0.11,-9.57,2.39,9.87
-0.13,-9.60,2.39,9.90
-0.08,-9.62,2.43,9.92
-0.07,-9.61,2.41,9.91
-0.08,-9.63,2.43,9.93
-0.08,-9.59,2.42,9.89
-0.09,-9.59,2.42,9.89
-0.11,-9.56,2.39,9.86
-0.09,-9.55,2.38,9.84
-0.11,-9.54,2.35,9.83
-0.09,-9.54,2.35,9.83
-0.10,-9.52,2.32,9.80
-0.09,-9.52,2.33,9.80
-0.08,-9.52,2.31,9.80
-0.09,-9.53,2.35,9.81
-0.08,-9.52,2.34,9.80
-0.08,-9.53,2.34,9.82
-0.10,-9.54,2.38,9.83
-0.08,-9.57,2.37,9.86
-0.10,-9.56,2.38,9.85
-0.11,-9.60,2.38,9.89
-0.10,-9.60,2.39,9.89
-0.10,-9.56,2.41,9.86
-0.14,-9.58,2.40,9.88
-0.13,-9.58,2.42,9.88
-0.09,-9.54,2.42,9.84
-0.13,-9.54,2.41,9.84
-0.12,-9.53,2.38,9.83
-0.13,-9.55,2.35,9.84
-0.12,-9.55,2.34,9.84
-0.12,-9.57,2.35,9.85
-0.11,-9.63,2.39,9.92
-0.09,-9.63,2.40,9.92
-0.08,-9.63,2.45,9.93
-0.06,-9.59,2.44,9.90
-0.10,-9.58,2.42,9.88
-0.06,-9.52,2.38,9.81
-0.07,-9.51,2.32,9.79
-0.08,-9.52,2.32,9.80
-0.11,-9.54,2.33,9.82
-0.15,-9.55,2.38,9.85
-0.16,-9.55,2.38,9.84
-0.15,-9.54,2.39,9.84
-0.14,-9.54,2.36,9.83
-0.13,-9.55,2.34,9.83
-0.09,-9.54,2.33,9.82
-0.08,-9.54,2.34,9.82
-0.08,-9.54,2.33,9.82
-0.07,-9.57,2.32,9.84
-0.09,-9.58,2.32,9.85
-0.08,-9.62,2.36,9.90
-0.07,-9.61,2.37,9.90
-0.09,-9.63,2.36,9.92
-0.11,-9.59,2.35,9.88
-0.15,-9.57,2.36,9.86
-0.12,-9.56,2.36,9.85
-0.13,-9.54,2.31,9.82
-0.13,-9.54,2.29,9.81
-0.13,-9.52,2.30,9.80
-0.12,-9.53,2.31,9.80
-0.10,-9.55,2.34,9.83
-0.09,-9.54,2.33,9.82
-0.12,-9.55,2.37,9.84
-0.12,-9.57,2.34,9.85
-0.08,-9.57,2.34,9.85
-0.09,-9.53,2.34,9.81
-0.10,-9.55,2.35,9.84
-0.10,-9.54,2.34,9.82
-0.11,-9.54,2.32,9.82
-0.09,-9.58,2.33,9.86
-0.11,-9.57,2.34,9.86
-0.08,-9.61,2.35,9.89
-0.10,-9.60,2.38,9.89
-0.12,-9.60,2.38,9.89
-0.13,-9.59,2.35,9.87
-0.13,-9.57,2.36,9.86
-0.14,-9.57,2.35,9.85
-0.13,-9.57,2.34,9.85
-0.08,-9.56,2.33,9.84
-0.10,-9.56,2.31,9.84
-0.12,-9.58,2.30,9.85
-0.10,-9.56,2.28,9.83
-0.12,-9.55,2.29,9.83
-0.14,-9.53,2.28,9.80
-0.11,-9.54,2.32,9.82
-0.14,-9.54,2.28,9.81
-0.13,-9.55,2.27,9.82
-0.09,-9.54,2.27,9.81
-0.12,-9.56,2.30,9.83
-0.12,-9.58,2.28,9.85
-0.12,-9.55,2.34,9.84
-0.13,-9.60,2.31,9.88
-0.12,-9.58,2.36,9.87
-0.10,-9.60,2.38,9.89
-0.10,-9.60,2.37,9.89
-0.08,-9.57,2.35,9.85
-0.07,-9.54,2.34,9.83
-0.06,-9.55,2.27,9.81
-0.10,-9.57,2.27,9.84
-0.11,-9.56,2.25,9.82
-0.13,-9.55,2.25,9.81
-0.15,-9.58,2.27,9.85
-0.11,-9.56,2.32,9.84
-0.14,-9.58,2.34,9.86
-0.10,-9.61,2.35,9.89
-0.09,-9.59,2.36,9.88
-0.06,-9.60,2.36,9.88
-0.06,-9.56,2.37,9.85
-0.08,-9.57,2.33,9.85
-0.11,-9.52,2.36,9.81
-0.13,-9.54,2.32,9.82
-0.12,-9.52,2.33,9.81
-0.16,-9.54,2.29,9.81
-0.12,-9.55,2.28,9.82
-0.14,-9.56,2.28,9.83
-0.11,-9.56,2.29,9.83
-0.09,-9.60,2.33,9.88
-0.08,-9.62,2.34,9.90
-0.03,-9.64,2.39,9.93
-0.04,-9.65,2.43,9.95
-0.03,-9.64,2.43,9.94
-0.02,-9.58,2.40,9.88
-0.03,-9.55,2.34,9.83
-0.05,-9.56,2.32,9.83
-0.03,-9.58,2.28,9.85
-0.04,-9.55,2.28,9.82
-0.06,-9.55,2.29,9.82
-0.06,-9.53,2.33,9.81
-0.09,-9.52,2.35,9.81
-0.09,-9.54,2.34,9.82
-0.11,-9.54,2.31,9.82
-0.11,-9.53,2.31,9.81
-0.09,-9.57,2.26,9.83
-0.08,-9.57,2.28,9.84
-0.04,-9.58,2.26,9.84
-0.02,-9.60,2.27,9.86
-0.03,-9.60,2.30,9.87
-0.03,-9.65,2.30,9.92
-0.01,-9.68,2.31,9.96
-0.02,-9.67,2.31,9.95
-0.05,-9.66,2.30,9.93
-0.02,-9.63,2.32,9.91
-0.06,-9.60,2.30,9.88
-0.07,-9.57,2.27,9.83
-0.07,-9.55,2.29,9.82
-0.05,-9.49,2.28,9.76
-0.06,-9.50,2.25,9.76
-0.05,-9.52,2.26,9.78
-0.04,-9.52,2.24,9.78
-0.02,-9.52,2.25,9.78
-0.00,-9.55,2.28,9.82
0.03,-9.59,2.35,9.88
0.00,-9.59,2.30,9.86
0.02,-9.57,2.36,9.86
-0.01,-9.58,2.37,9.87
-0.01,-9.55,2.36,9.84
-0.04,-9.54,2.34,9.83
-0.01,-9.55,2.33,9.83
-0.02,-9.54,2.35,9.83
-0.05,-9.56,2.33,9.84
-0.06,-9.54,2.30,9.82
-0.06,-9.53,2.29,9.80
-0.09,-9.54,2.27,9.81
-0.09,-9.55,2.28,9.81
-0.11,-9.58,2.27,9.85
-0.12,-9.59,2.29,9.86
-0.16,-9.60,2.31,9.87
-0.16,-9.62,2.29,9.89
-0.16,-9.59,2.28,9.86
-0.14,-9.59,2.27,9.86
-0.15,-9.59,2.29,9.86
-0.17,-9.57,2.30,9.84
-0.17,-9.55,2.29,9.83
-0.17,-9.55,2.29,9.83
-0.17,-9.57,2.30,9.84
-0.14,-9.55,2.29,9.83
-0.12,-9.54,2.32,9.81
-0.11,-9.56,2.29,9.83
-0.11,-9.58,2.28,9.85
-0.12,-9.61,2.29,9.88
-0.09,-9.62,2.28,9.89
-0.11,-9.59,2.27,9.85
-0.11,-9.60,2.28,9.87
-0.12,-9.59,2.30,9.86
-0.13,-9.61,2.28,9.88
-0.15,-9.61,2.29,9.88
-0.13,-9.57,2.30,9.84
-0.12,-9.57,2.32,9.85
-0.11,-9.56,2.35,9.84
-0.09,-9.56,2.39,9.86
-0.14,-9.54,2.41,9.84
-0.10,-9.54,2.37,9.83
-0.10,-9.54,2.35,9.82
-0.10,-9.54,2.36,9.83
-0.06,-9.54,2.32,9.82
-0.07,-9.51,2.30,9.78
-0.06,-9.51,2.29,9.78
-0.06,-9.48,2.25,9.74
-0.06,-9.49,2.23,9.74
-0.07,-9.49,2.23,9.75
-0.07,-9.52,2.22,9.78
-0.08,-9.57,2.24,9.83
-0.09,-9.62,2.30,9.89
-0.07,-9.70,2.37,9.98
-0.11,-9.71,2.41,10.00
-0.05,-9.72,2.42,10.01
-0.08,-9.65,2.41,9.95
-0.04,-9.66,2.39,9.95
-0.04,-9.63,2.34,9.91
-0.10,-9.58,2.29,9.86
-0.08,-9.53,2.29,9.81
-0.09,-9.47,2.27,9.74
-0.12,-9.48,2.27,9.75
-0.13,-9.49,2.28,9.76
-0.13,-9.53,2.26,9.80
-0.13,-9.55,2.26,9.81
-0.10,-9.54,2.29,9.82
-0.07,-9.59,2.32,9.87
-0.02,-9.59,2.32,9.87
-0.06,-9.60,2.34,9.88
-0.06,-9.61,2.35,9.89
-0.08,-9.63,2.36,9.91
-0.08,-9.62,2.34,9.90
-0.09,-9.59,2.37,9.88
-0.10,-9.60,2.37,9.88
-0.10,-9.57,2.34,9.85
-0.12,-9.52,2.30,9.80
-0.12,-9.51,2.30,9.79
-0.11,-9.52,2.27,9.79
-0.10,-9.52,2.28,9.79
-0.13,-9.54,2.29,9.81
-0.13,-9.56,2.32,9.84
-0.11,-9.57,2.34,9.85
-0.13,-9.57,2.35,9.85
-0.07,-9.59,2.34,9.87
-0.09,-9.57,2.34,9.85
-0.08,-9.57,2.33,9.85
-0.08,-9.53,2.35,9.82
-0.08,-9.52,2.34,9.80
-0.08,-9.53,2.33,9.81
-0.08,-9.58,2.34,9.86
-0.08,-9.59,2.37,9.88
-0.11,-9.60,2.36,9.89
-0.09,-9.62,2.38,9.91
-0.11,-9.60,2.41,9.90
-0.10,-9.57,2.41,9.87
-0.09,-9.58,2.39,9.87
-0.09,-9.56,2.38,9.85
-0.11,-9.57,2.37,9.86
-0.12,-9.54,2.34,9.82
-0.09,-9.56,2.37,9.85
-0.09,-9.54,2.35,9.82
-0.05,-9.55,2.32,9.82
-0.07,-9.52,2.34,9.80
-0.09,-9.52,2.33,9.80
-0.09,-9.52,2.36,9.81
-0.11,-9.52,2.36,9.81
-0.10,-9.52,2.34,9.80
-0.11,-9.50,2.35,9.79
-0.09,-9.53,2.37,9.82
-0.11,-9.54,2.38,9.83
-0.12,-9.59,2.40,9.89
-0.11,-9.63,2.42,9.94
-0.14,-9.66,2.43,9.96
-0.08,-9.64,2.46,9.95
-0.10,-9.62,2.47,9.93
-0.08,-9.60,2.45,9.90
-0.08,-9.57,2.46,9.88
-0.06,-9.53,2.44,9.84
-0.06,-9.49,2.42,9.79
-0.06,-9.47,2.40,9.77
-0.10,-9.45,2.38,9.75
-0.12,-9.45,2.41,9.75
-0.13,-9.48,2.43,9.78
-0.13,-9.48,2.44,9.79
-0.15,-9.52,2.45,9.84
-0.12,-9.54,2.46,9.85
-0.13,-9.55,2.47,9.87
-0.15,-9.57,2.49,9.89
-0.12,-9.56,2.51,9.89
-0.12,-9.55,2.49,9.87
-0.15,-9.54,2.47,9.86
-0.15,-9.54,2.46,9.85
-0.15,-9.53,2.47,9.85
-0.11,-9.49,2.49,9.81
-0.12,-9.51,2.49,9.83
-0.11,-9.53,2.51,9.85
-0.06,-9.56,2.54,9.89
-0.11,-9.58,2.61,9.93
-0.09,-9.56,2.61,9.91
-0.07,-9.52,2.58,9.86
-0.07,-9.51,2.53,9.84
-0.07,-9.50,2.49,9.82
-0.08,-9.47,2.48,9.79
-0.08,-9.49,2.50,9.81
-0.11,-9.49,2.49,9.81
-0.14,-9.48,2.54,9.82
-0.15,-9.52,2.57,9.87
-0.13,-9.52,2.57,9.86
-0.13,-9.51,2.52,9.84
-0.06,-9.53,2.53,9.86
-0.08,-9.51,2.55,9.85
-0.06,-9.49,2.54,9.83
-0.04,-9.51,2.55,9.84
-0.08,-9.49,2.55,9.83
-0.07,-9.54,2.59,9.88
-0.09,-9.57,2.61,9.92
-0.14,-9.54,2.60,9.89
-0.15,-9.52,2.61,9.87
-0.16,-9.51,2.61,9.86
-0.13,-9.53,2.59,9.88
-0.13,-9.50,2.59,9.84
-0.13,-9.49,2.59,9.83
-0.16,-9.47,2.60,9.82
-0.14,-9.46,2.57,9.81
-0.14,-9.45,2.56,9.80
-0.19,-9.45,2.57,9.80
-0.18,-9.46,2.59,9.81
-0.16,-9.43,2.58,9.78
-0.14,-9.47,2.62,9.83
-0.15,-9.48,2.66,9.85
-0.13,-9.48,2.65,9.84
-0.11,-9.50,2.65,9.86
-0.09,-9.51,2.70,9.88
-0.10,-9.50,2.66,9.86
-0.10,-9.49,2.70,9.86
-0.12,-9.48,2.74,9.87
-0.12,-9.49,2.73,9.87
-0.14,-9.47,2.70,9.85
-0.15,-9.50,2.72,9.88
-0.13,-9.51,2.69,9.88
-0.11,-9.49,2.69,9.86
-0.08,-9.48,2.68,9.85
-0.07,-9.49,2.68,9.86
-0.09,-9.50,2.68,9.87
-0.10,-9.46,2.66,9.83
-0.11,-9.46,2.66,9.83
-0.08,-9.45,2.65,9.82
-0.12,-9.49,2.67,9.86
-0.13,-9.48,2.67,9.85
-0.13,-9.48,2.66,9.84
-0.14,-9.46,2.68,9.83
-0.14,-9.47,2.67,9.84
-0.14,-9.48,2.70,9.85
-0.15,-9.49,2.70,9.87
-0.13,-9.50,2.72,9.88
-0.12,-9.50,2.72,9.88
-0.13,-9.49,2.72,9.88
-0.13,-9.51,2.74,9.90
-0.11,-9.49,2.75,9.88
-0.11,-9.49,2.75,9.88
-0.14,-9.47,2.73,9.86
-0.11,-9.43,2.73,9.82
-0.09,-9.42,2.74,9.81
-0.10,-9.40,2.74,9.80
-0.17,-9.38,2.74,9.77
-0.19,-9.38,2.76,9.78
-0.15,-9.42,2.75,9.81
-0.14,-9.46,2.75,9.85
-0.12,-9.44,2.76,9.84
-0.14,-9.48,2.76,9.87
-0.17,-9.49,2.79,9.89
-0.13,-9.49,2.79,9.89
-0.15,-9.47,2.83,9.88
-0.17,-9.45,2.83,9.86
-0.17,-9.45,2.83,9.86
-0.14,-9.44,2.81,9.85
-0.17,-9.46,2.82,9.88
-0.17,-9.45,2.82,9.86
-0.14,-9.47,2.87,9.90
-0.17,-9.44,2.86,9.86
-0.17,-9.44,2.86,9.86
-0.14,-9.42,2.82,9.83
-0.13,-9.38,2.81,9.80
-0.17,-9.38,2.83,9.80
-0.13,-9.44,2.87,9.86
-0.13,-9.46,2.90,9.89
-0.15,-9.43,2.90,9.87
-0.10,-9.45,2.89,9.88
-0.11,-9.45,2.82,9.86
-0.06,-9.45,2.82,9.86
-0.05,-9.42,2.83,9.83
-0.04,-9.44,2.82,9.85
-0.04,-9.39,2.84,9.81
-0.08,-9.41,2.86,9.83
-0.07,-9.40,2.88,9.84
-0.12,-9.44,2.93,9.88
-0.14,-9.43,2.94,9.88
-0.16,-9.43,2.94,9.88
-0.18,-9.40,2.94,9.85
-0.18,-9.40,2.91,9.85
-0.16,-9.40,2.89,9.84
-0.17,-9.40,2.85,9.83
-0.17,-9.42,2.85,9.84
-0.17,-9.44,2.87,9.87
-0.16,-9.44,2.89,9.87
-0.15,-9.42,2.87,9.85
-0.13,-9.41,2.88,9.85
-0.13,-9.44,2.90,9.87
-0.15,-9.40,2.90,9.84
-0.12,-9.38,2.91,9.82
-0.14,-9.40,2.92,9.84
-0.11,-9.40,2.90,9.84
-0.12,-9.43,2.91,9.87
-0.12,-9.41,2.91,9.85
-0.14,-9.44,2.94,9.89
-0.17,-9.41,2.94,9.86
-0.17,-9.44,2.93,9.89
-0.15,-9.43,2.90,9.87
-0.17,-9.42,2.92,9.87
-0.15,-9.42,2.89,9.85
-0.14,-9.41,2.83,9.83
-0.14,-9.40,2.86,9.82
-0.18,-9.41,2.88,9.84
-0.16,-9.41,2.89,9.85
-0.20,-9.41,2.89,9.85
-0.21,-9.42,2.92,9.86
-0.23,-9.44,2.92,9.89
-0.23,-9.43,2.91,9.87
-0.19,-9.42,2.89,9.85
-0.19,-9.39,2.90,9.83
-0.17,-9.39,2.88,9.83
-0.14,-9.39,2.91,9.83
-0.17,-9.39,2.91,9.83
-0.15,-9.43,2.94,9.88
-0.19,-9.44,2.96,9.90
-0.17,-9.43,2.97,9.89
-0.20,-9.43,2.99,9.89
-0.16,-9.43,2.99,9.89
-0.13,-9.37,2.97,9.83
-0.12,-9.38,2.96,9.84
-0.11,-9.34,2.92,9.79
-0.12,-9.37,2.92,9.81
-0.12,-9.36,2.93,9.81
-0.14,-9.36,2.91,9.81
-0.18,-9.36,2.94,9.81
-0.17,-9.37,2.96,9.83
-0.14,-9.38,2.94,9.83
-0.15,-9.41,2.93,9.86
-0.15,-9.40,2.96,9.86
-0.15,-9.40,2.99,9.87
-0.16,-9.43,2.98,9.89
-0.17,-9.44,3.00,9.91
-0.16,-9.49,3.05,9.97
-0.17,-9.45,3.08,9.94
-0.18,-9.40,3.09,9.90
-0.16,-9.33,3.02,9.80
-0.20,-9.33,3.00,9.80
-0.17,-9.30,2.96,9.76
-0.20,-9.30,2.96,9.76
-0.22,-9.32,2.97,9.78
-0.20,-9.33,3.01,9.81
-0.22,-9.39,3.05,9.88
-0.20,-9.44,2.99,9.90
-0.13,-9.45,2.95,9.90
-0.12,-9.48,2.96,9.94
-0.10,-9.51,2.98,9.96
-0.07,-9.48,3.01,9.94
-0.08,-9.47,2.99,9.93
-0.08,-9.44,3.04,9.91
-0.12,-9.40,3.05,9.88
-0.15,-9.39,3.05,9.87
-0.17,-9.35,3.04,9.84
-0.17,-9.31,3.04,9.79
-0.16,-9.30,3.01,9.77
-0.17,-9.30,2.96,9.76
-0.17,-9.29,2.92,9.74
-0.12,-9.33,2.91,9.77
-0.15,-9.37,2.94,9.82
-0.12,-9.39,2.97,9.85
-0.12,-9.39,2.97,9.85
-0.08,-9.42,3.01,9.89
-0.09,-9.42,3.05,9.90
-0.11,-9.41,3.05,9.89
-0.11,-9.40,3.07,9.89
-0.09,-9.38,3.10,9.88
-0.10,-9.40,3.11,9.90
-0.09,-9.40,3.11,9.90
-0.10,-9.42,3.12,9.93
-0.10,-9.40,3.13,9.91
-0.10,-9.39,3.13,9.90
-0.12,-9.36,3.09,9.86
-0.14,-9.36,3.05,9.84
-0.12,-9.32,3.02,9.80
-0.14,-9.29,2.97,9.75
-0.12,-9.29,2.97,9.75
-0.13,-9.26,2.93,9.71
-0.15,-9.25,2.94,9.71
-0.13,-9.29,2.96,9.75
-0.13,-9.32,2.98,9.79
-0.14,-9.36,3.03,9.83
-0.14,-9.45,3.06,9.93
-0.19,-9.46,3.08,9.95
-0.19,-9.48,3.09,9.97
-0.22,-9.46,3.09,9.95
-0.22,-9.42,3.07,9.91
-0.21,-9.41,3.05,9.90
-0.21,-9.41,3.03,9.89
-0.21,-9.43,3.01,9.90
-0.20,-9.42,3.00,9.89
-0.19,-9.40,3.02,9.87
-0.20,-9.38,3.04,9.86
-0.21,-9.36,3.05,9.84
-0.15,-9.35,3.03,9.82
-0.15,-9.35,3.02,9.83
-0.14,-9.35,3.02,9.83
-0.14,-9.35,3.01,9.83
-0.16,-9.37,3.00,9.84
-0.12,-9.37,3.02,9.84
-0.12,-9.36,3.07,9.85
-0.10,-9.37,3.08,9.86
-0.09,-9.37,3.10,9.87
-0.08,-9.36,3.04,9.84
-0.08,-9.37,3.05,9.85
-0.11,-9.41,3.06,9.90
-0.08,-9.42,3.13,9.93
-0.10,-9.40,3.13,9.91
-0.08,-9.41,3.09,9.90
-0.07,-9.39,3.08,9.88
-0.07,-9.36,3.08,9.85
-0.07,-9.30,3.10,9.81
-0.08,-9.27,3.14,9.78
-0.11,-9.25,3.10,9.76
-0.14,-9.28,3.06,9.78
-0.12,-9.33,3.01,9.81
-0.09,-9.39,2.92,9.84
-0.09,-9.43,2.90,9.87
-0.08,-9.52,3.00,9.98
-0.08,-9.53,3.07,10.01
-0.08,-9.49,3.12,9.99
-0.13,-9.44,3.16,9.96
-0.09,-9.40,3.16,9.91
-0.14,-9.35,3.14,9.86
-0.20,-9.29,3.07,9.78
-0.19,-9.29,3.00,9.76
-0.22,-9.29,2.95,9.75
-0.24,-9.32,2.91,9.76
-0.21,-9.35,2.90,9.79
-0.23,-9.40,2.93,9.85
-0.23,-9.40,2.99,9.87
-0.19,-9.41,3.03,9.89
-0.16,-9.41,3.04,9.89
-0.16,-9.37,3.06,9.86
-0.15,-9.39,3.02,9.87
-0.15,-9.39,2.97,9.85
-0.14,-9.36,2.92,9.80
-0.14,-9.38,2.91,9.82
-0.14,-9.36,2.97,9.82
-0.11,-9.38,2.97,9.84
-0.10,-9.38,3.00,9.85
-0.07,-9.45,3.03,9.92
-0.14,-9.43,3.09,9.92
-0.18,-9.43,3.13,9.93
-0.20,-9.42,3.12,9.92
-0.22,-9.41,3.04,9.90
-0.21,-9.38,3.06,9.86
-0.14,-9.32,3.02,9.80
-0.13,-9.33,2.94,9.78
-0.11,-9.30,2.94,9.76
-0.11,-9.28,2.94,9.74
-0.09,-9.32,2.92,9.77
-0.13,-9.35,2.92,9.79
-0.17,-9.41,2.98,9.87
-0.19,-9.42,3.02,9.89
-0.19,-9.45,3.02,9.92
-0.18,-9.49,3.05,9.97
-0.14,-9.47,3.01,9.94
-0.12,-9.49,3.02,9.96
-0.08,-9.46,3.00,9.93
-0.07,-9.50,2.99,9.96
-0.13,-9.47,3.00,9.93
-0.11,-9.45,2.99,9.91
-0.11,-9.39,2.99,9.86
-0.16,-9.34,2.98,9.81
-0.14,-9.29,2.96,9.75
-0.14,-9.31,2.94,9.76
-0.18,-9.28,2.89,9.72
-0.16,-9.27,2.90,9.71
-0.18,-9.35,2.91,9.79
-0.17,-9.35,2.89,9.79
-0.16,-9.35,2.87,9.78
-0.17,-9.40,2.87,9.83
-0.17,-9.42,2.89,9.86
-0.18,-9.50,2.93,9.94
-0.16,-9.52,2.97,9.98
-0.15,-9.54,3.01,10.01
-0.19,-9.45,3.05,9.93
-0.18,-9.43,3.01,9.90
-0.16,-9.40,2.98,9.86
-0.14,-9.37,2.91,9.81
-0.14,-9.35,2.89,9.79
-0.13,-9.36,2.91,9.80
-0.15,-9.38,2.90,9.82
-0.17,-9.36,2.91,9.81
-0.22,-9.39,2.92,9.83
-0.18,-9.43,2.88,9.87
-0.16,-9.43,2.87,9.86
-0.10,-9.45,2.84,9.87
-0.10,-9.45,2.85,9.87
-0.04,-9.47,2.85,9.89
-0.05,-9.42,2.84,9.84
-0.05,-9.42,2.89,9.85
-0.06,-9.44,2.87,9.87
-0.11,-9.49,2.87,9.92
-0.13,-9.46,2.92,9.90
-0.14,-9.47,2.91,9.91
-0.16,-9.45,2.90,9.89
-0.17,-9.43,2.90,9.87
-0.14,-9.41,2.88,9.84
-0.13,-9.39,2.87,9.81
-0.12,-9.37,2.85,9.80
-0.14,-9.38,2.81,9.79
-0.08,-9.40,2.87,9.83
-0.11,-9.35,2.87,9.78
-0.13,-9.40,2.88,9.84
-0.10,-9.38,2.91,9.82
-0.14,-9.42,2.90,9.85
-0.13,-9.42,2.92,9.86
-0.11,-9.46,2.91,9.89
-0.11,-9.48,2.94,9.93
-0.11,-9.44,2.96,9.89
-0.11,-9.44,2.94,9.88
-0.13,-9.42,2.97,9.88
-0.17,-9.39,2.94,9.84
-0.17,-9.39,2.95,9.84
-0.19,-9.35,2.92,9.80
-0.16,-9.37,2.86,9.80
-0.17,-9.42,2.82,9.83
-0.17,-9.44,2.82,9.86
-0.09,-9.46,2.84,9.88
-0.06,-9.46,2.81,9.87
-0.05,-9.45,2.80,9.86
-0.06,-9.46,2.80,9.86
-0.08,-9.46,2.81,9.87
-0.11,-9.44,2.83,9.85
-0.11,-9.44,2.80,9.85
-0.13,-9.44,2.80,9.85
-0.14,-9.49,2.78,9.89
-0.16,-9.47,2.80,9.88
-0.14,-9.48,2.82,9.89
-0.15,-9.47,2.80,9.88
-0.14,-9.49,2.82,9.90
-0.14,-9.48,2.81,9.89
-0.16,-9.46,2.82,9.87
-0.16,-9.43,2.79,9.83
-0.18,-9.42,2.76,9.82
-0.17,-9.43,2.73,9.82
-0.18,-9.44,2.73,9.83
-0.19,-9.43,2.73,9.82
-0.17,-9.42,2.74,9.81
-0.20,-9.41,2.83,9.83
-0.20,-9.41,2.86,9.84
-0.18,-9.40,2.86,9.83
-0.17,-9.40,2.82,9.82
-0.18,-9.41,2.81,9.82
-0.15,-9.41,2.76,9.81
-0.17,-9.42,2.72,9.81
-0.18,-9.43,2.69,9.81
-0.17,-9.50,2.71,9.88
-0.18,-9.54,2.75,9.93
-0.16,-9.57,2.78,9.97
-0.15,-9.54,2.79,9.94
-0.15,-9.47,2.73,9.86
-0.16,-9.49,2.71,9.87
-0.18,-9.45,2.68,9.83
-0.18,-9.46,2.72,9.84
-0.19,-9.44,2.76,9.84
-0.22,-9.47,2.81,9.88
-0.22,-9.44,2.83,9.86
-0.23,-9.41,2.80,9.82
-0.21,-9.45,2.75,9.84
-0.16,-9.42,2.69,9.80
-0.12,-9.43,2.68,9.80
-0.09,-9.46,2.67,9.83
-0.08,-9.49,2.66,9.85
-0.07,-9.52,2.63,9.88
-0.14,-9.52,2.66,9.89
-0.15,-9.52,2.65,9.89
-0.14,-9.51,2.66,9.87
-0.18,-9.49,2.71,9.87
-0.21,-9.49,2.71,9.87
-0.21,-9.47,2.71,9.85
-0.20,-9.45,2.68,9.82
-0.20,-9.42,2.66,9.79
-0.16,-9.42,2.66,9.79
-0.18,-9.43,2.67,9.80
-0.16,-9.44,2.65,9.81
-0.16,-9.43,2.67,9.81
-0.18,-9.43,2.68,9.80
-0.19,-9.45,2.70,9.83
-0.18,-9.44,2.71,9.83
-0.19,-9.48,2.74,9.87
-0.17,-9.47,2.72,9.85
-0.14,-9.48,2.71,9.86
-0.12,-9.50,2.70,9.88
-0.11,-9.49,2.68,9.86
-0.10,-9.49,2.64,9.85
-0.11,-9.53,2.64,9.89
-0.13,-9.53,2.67,9.90
-0.16,-9.53,2.66,9.90
-0.17,-9.51,2.64,9.88
-0.19,-9.51,2.63,9.87
-0.22,-9.49,2.60,9.84
-0.22,-9.52,2.61,9.87
-0.19,-9.50,2.58,9.85
-0.20,-9.49,2.61,9.85
-0.20,-9.51,2.62,9.87
-0.21,-9.52,2.61,9.87
-0.16,-9.50,2.59,9.85
-0.14,-9.48,2.60,9.83
-0.20,-9.46,2.61,9.81
-0.20,-9.49,2.60,9.84
-0.19,-9.45,2.59,9.80
-0.22,-9.46,2.56,9.80
-0.22,-9.48,2.58,9.83
-0.22,-9.51,2.57,9.85
-0.17,-9.53,2.54,9.86
-0.17,-9.55,2.56,9.89
-0.13,-9.57,2.58,9.91
-0.14,-9.57,2.57,9.91
-0.15,-9.56,2.58,9.90
-0.14,-9.55,2.56,9.89
-0.17,-9.53,2.58,9.88
-0.17,-9.51,2.56,9.85
-0.15,-9.51,2.56,9.85
-0.15,-9.49,2.55,9.83
-0.18,-9.47,2.52,9.80
-0.17,-9.47,2.52,9.80
-0.18,-9.48,2.54,9.81
-0.16,-9.49,2.54,9.82
-0.17,-9.51,2.54,9.84
-0.18,-9.49,2.53,9.82
-0.14,-9.52,2.53,9.85
-0.17,-9.50,2.52,9.83
-0.19,-9.51,2.52,9.84
-0.18,-9.50,2.51,9.83
-0.19,-9.52,2.51,9.84
-0.18,-9.53,2.49,9.85
-0.24,-9.53,2.47,9.84
-0.20,-9.51,2.45,9.83
-0.22,-9.57,2.47,9.88
-0.19,-9.58,2.53,9.91
-0.19,-9.60,2.57,9.94
-0.19,-9.60,2.60,9.95
-0.20,-9.57,2.63,9.93
-0.16,-9.55,2.61,9.90
-0.17,-9.49,2.57,9.83
-0.13,-9.48,2.50,9.81
-0.14,-9.48,2.48,9.80
-0.16,-9.49,2.46,9.80
-0.18,-9.50,2.48,9.82
-0.23,-9.52,2.51,9.85
-0.23,-9.52,2.52,9.85
-0.25,-9.51,2.51,9.83
-0.23,-9.53,2.48,9.85
-0.18,-9.50,2.50,9.82
-0.13,-9.50,2.50,9.82
-0.13,-9.50,2.55,9.84
-0.16,-9.53,2.54,9.86
-0.17,-9.53,2.56,9.87
-0.21,-9.52,2.54,9.85
-0.17,-9.53,2.54,9.87
-0.22,-9.52,2.52,9.85
-0.20,-9.53,2.50,9.85
-0.20,-9.54,2.49,9.86
-0.21,-9.53,2.46,9.84
-0.20,-9.52,2.45,9.84
-0.17,-9.50,2.43,9.81
-0.17,-9.50,2.43,9.80
-0.19,-9.53,2.43,9.84
-0.16,-9.49,2.48,9.81
-0.20,-9.50,2.48,9.82
-0.20,-9.52,2.50,9.85
-0.19,-9.50,2.49,9.82
-0.19,-9.50,2.50,9.83
-0.18,-9.51,2.50,9.83
-0.20,-9.49,2.53,9.82
-0.19,-9.49,2.51,9.82
-0.22,-9.52,2.51,9.85
-0.16,-9.57,2.47,9.89
-0.17,-9.57,2.49,9.89
-0.17,-9.57,2.52,9.90
-0.16,-9.56,2.48,9.88
-0.18,-9.57,2.46,9.88
-0.18,-9.52,2.46,9.83
-0.19,-9.54,2.45,9.85
-0.16,-9.55,2.43,9.86
-0.19,-9.54,2.46,9.86
-0.16,-9.52,2.44,9.83
-0.16,-9.52,2.46,9.83
-0.14,-9.56,2.44,9.87
-0.17,-9.53,2.45,9.84
-0.17,-9.55,2.44,9.85
-0.20,-9.54,2.43,9.85
-0.19,-9.53,2.45,9.84
-0.21,-9.52,2.42,9.83
-0.19,-9.49,2.44,9.81
-0.21,-9.49,2.43,9.79
-0.19,-9.50,2.43,9.80
-0.19,-9.53,2.45,9.84
-0.15,-9.54,2.45,9.85
-0.15,-9.57,2.43,9.88
-0.15,-9.59,2.44,9.90
-0.14,-9.58,2.45,9.88
-0.15,-9.60,2.48,9.91
-0.16,-9.58,2.47,9.90
-0.14,-9.57,2.47,9.89
-0.17,-9.54,2.46,9.85
-0.15,-9.51,2.43,9.82
-0.18,-9.53,2.43,9.84
-0.16,-9.52,2.46,9.83
-0.16,-9.52,2.47,9.83
-0.16,-9.49,2.49,9.81
-0.14,-9.50,2.51,9.83
-0.16,-9.49,2.50,9.82
-0.15,-9.49,2.50,9.81
-0.15,-9.50,2.50,9.83
-0.19,-9.56,2.48,9.88
-0.17,-9.56,2.46,9.87
-0.18,-9.55,2.46,9.86
-0.18,-9.56,2.43,9.87
-0.19,-9.57,2.45,9.88
-0.16,-9.56,2.43,9.86
-0.17,-9.54,2.42,9.85
-0.16,-9.55,2.45,9.86
-0.15,-9.55,2.47,9.86
-0.15,-9.54,2.49,9.86
-0.16,-9.55,2.48,9.87
-0.15,-9.55,2.48,9.87
-0.17,-9.54,2.47,9.85
-0.18,-9.52,2.46,9.84
-0.17,-9.51,2.46,9.82
-0.17,-9.47,2.46,9.79
-0.18,-9.49,2.45,9.81
-0.17,-9.52,2.48,9.84
-0.15,-9.53,2.50,9.85
-0.15,-9.57,2.52,9.89
-0.14,-9.58,2.50,9.91
-0.16,-9.58,2.51,9.91
-0.17,-9.55,2.47,9.87
-0.14,-9.59,2.39,9.88
-0.17,-9.58,2.38,9.87
-0.19,-9.57,2.41,9.87
-0.21,-9.55,2.45,9.86
-0.21,-9.53,2.48,9.85
-0.25,-9.50,2.51,9.83
-0.23,-9.49,2.47,9.81
-0.25,-9.50,2.43,9.81
-0.17,-9.51,2.40,9.81
-0.14,-9.50,2.41,9.80
-0.10,-9.52,2.43,9.82
-0.13,-9.58,2.43,9.88
-0.12,-9.55,2.45,9.86
-0.11,-9.57,2.49,9.89
-0.19,-9.58,2.52,9.91
-0.20,-9.54,2.52,9.87
-0.22,-9.54,2.51,9.87
-0.22,-9.52,2.46,9.84
-0.21,-9.52,2.39,9.82
-0.18,-9.53,2.42,9.84
-0.19,-9.53,2.38,9.82
-0.20,-9.52,2.38,9.82
-0.18,-9.54,2.37,9.83
-0.20,-9.54,2.43,9.85
-0.16,-9.53,2.46,9.84
-0.17,-9.54,2.45,9.85
-0.18,-9.53,2.47,9.85
-0.19,-9.53,2.48,9.85
-0.16,-9.55,2.47,9.86
-0.19,-9.54,2.50,9.86
-0.17,-9.56,2.48,9.88
-0.17,-9.53,2.48,9.85
-0.16,-9.55,2.48,9.87
-0.13,-9.52,2.48,9.83
-0.15,-9.55,2.49,9.87
-0.18,-9.54,2.50,9.86
-0.20,-9.52,2.46,9.84
-0.21,-9.52,2.47,9.84
-0.24,-9.52,2.45,9.83
-0.26,-9.54,2.49,9.87
-0.23,-9.56,2.47,9.88
-0.20,-9.56,2.45,9.87
-0.17,-9.60,2.44,9.91
-0.12,-9.57,2.40,9.87
-0.12,-9.53,2.40,9.83
-0.14,-9.51,2.39,9.81
-0.15,-9.53,2.38,9.82
-0.18,-9.54,2.38,9.83
-0.18,-9.55,2.38,9.84
-0.20,-9.57,2.41,9.87
-0.21,-9.56,2.45,9.87
-0.22,-9.55,2.44,9.86
-0.17,-9.55,2.46,9.86
-0.18,-9.56,2.49,9.88
-0.16,-9.53,2.50,9.85
-0.17,-9.52,2.49,9.84
-0.19,-9.53,2.52,9.86
-0.18,-9.54,2.50,9.86
-0.15,-9.51,2.48,9.83
-0.16,-9.50,2.44,9.81
-0.17,-9.50,2.44,9.81
-0.20,-9.54,2.43,9.85
-0.18,-9.54,2.41,9.84
-0.22,-9.58,2.44,9.89
-0.22,-9.55,2.46,9.87
-0.18,-9.55,2.48,9.87
-0.21,-9.54,2.51,9.86
-0.19,-9.47,2.53,9.81
-0.19,-9.51,2.51,9.84
-0.18,-9.52,2.51,9.84
-0.16,-9.49,2.49,9.81
-0.21,-9.51,2.50,9.84
-0.21,-9.50,2.49,9.82
-0.21,-9.51,2.48,9.83
-0.22,-9.52,2.47,9.84
-0.20,-9.53,2.48,9.85
-0.19,-9.55,2.48,9.87
-0.19,-9.58,2.48,9.90
-0.21,-9.54,2.48,9.86
-0.19,-9.54,2.50,9.86
-0.20,-9.53,2.51,9.86
-0.19,-9.54,2.50,9.87
-0.17,-9.51,2.53,9.84
-0.16,-9.54,2.51,9.87
-0.19,-9.55,2.54,9.88
-0.17,-9.58,2.60,9.93
-0.17,-9.56,2.62,9.91
-0.17,-9.54,2.59,9.88
-0.14,-9.52,2.53,9.85
-0.18,-9.50,2.53,9.83
-0.16,-9.49,2.51,9.82
-0.15,-9.47,2.54,9.81
-0.18,-9.48,2.56,9.82
-0.22,-9.47,2.59,9.82
-0.22,-9.46,2.61,9.81
-0.23,-9.48,2.61,9.84
-0.18,-9.50,2.56,9.85
-0.20,-9.53,2.54,9.87
-0.15,-9.52,2.56,9.86
-0.12,-9.51,2.54,9.84
-0.12,-9.53,2.54,9.87
-0.12,-9.51,2.55,9.85
-0.11,-9.57,2.58,9.92
-0.15,-9.54,2.59,9.89
-0.18,-9.57,2.57,9.91
-0.18,-9.56,2.60,9.91
-0.19,-9.54,2.60,9.88
-0.20,-9.52,2.56,9.86
-0.21,-9.51,2.55,9.85
-0.19,-9.47,2.54,9.81
-0.21,-9.46,2.55,9.80
-0.22,-9.44,2.54,9.78
-0.22,-9.45,2.56,9.79
-0.20,-9.46,2.55,9.80
-0.19,-9.47,2.58,9.82
-0.17,-9.47,2.57,9.81
-0.18,-9.46,2.62,9.82
-0.15,-9.47,2.62,9.82
-0.15,-9.47,2.62,9.83
-0.14,-9.51,2.65,9.87
-0.12,-9.52,2.66,9.88
-0.13,-9.51,2.64,9.87
-0.15,-9.55,2.66,9.91
-0.15,-9.57,2.71,9.95
-0.15,-9.56,2.73,9.95
-0.18,-9.52,2.71,9.90
-0.23,-9.49,2.68,9.86
-0.21,-9.46,2.70,9.84
-0.22,-9.46,2.64,9.82
-0.19,-9.47,2.66,9.84
-0.21,-9.44,2.66,9.81
-0.18,-9.45,2.64,9.82
-0.19,-9.45,2.63,9.81
-0.17,-9.48,2.64,9.84
-0.16,-9.48,2.61,9.84
-0.16,-9.48,2.62,9.83
-0.17,-9.47,2.62,9.83
-0.19,-9.52,2.63,9.87
-0.20,-9.51,2.65,9.87
-0.18,-9.51,2.64,9.87
-0.17,-9.50,2.67,9.87
-0.16,-9.52,2.67,9.88
-0.14,-9.48,2.68,9.86
-0.15,-9.54,2.70,9.92
-0.13,-9.51,2.69,9.89
-0.17,-9.51,2.71,9.89
-0.16,-9.51,2.71,9.89
-0.16,-9.49,2.71,9.88
-0.14,-9.47,2.73,9.86
-0.17,-9.45,2.75,9.85
-0.16,-9.43,2.76,9.82
-0.19,-9.42,2.75,9.82
-0.16,-9.40,2.78,9.80
-0.18,-9.39,2.77,9.79
-0.15,-9.42,2.76,9.82
-0.16,-9.40,2.75,9.79
-0.15,-9.43,2.74,9.82
-0.15,-9.45,2.72,9.83
-0.16,-9.47,2.69,9.84
-0.19,-9.46,2.70,9.84
-0.18,-9.49,2.72,9.87
-0.18,-9.47,2.76,9.86
-0.18,-9.48,2.76,9.87
-0.17,-9.46,2.80,9.87
-0.15,-9.44,2.80,9.85
-0.14,-9.45,2.82,9.86
-0.12,-9.40,2.81,9.81
-0.16,-9.44,2.82,9.85
-0.21,-9.42,2.80,9.83
-0.20,-9.41,2.78,9.81
-0.21,-9.42,2.78,9.82
-0.20,-9.43,2.78,9.83
-0.17,-9.45,2.79,9.86
-0.19,-9.49,2.83,9.90
-0.14,-9.53,2.84,9.95
-0.10,-9.55,2.89,9.98
-0.13,-9.53,2.87,9.95
-0.12,-9.46,2.85,9.88
-0.13,-9.43,2.81,9.84
-0.14,-9.39,2.77,9.79
-0.14,-9.34,2.78,9.75
-0.17,-9.37,2.80,9.78
-0.17,-9.38,2.79,9.78
-0.19,-9.39,2.84,9.81
-0.18,-9.43,2.84,9.85
-0.17,-9.45,2.84,9.87
-0.18,-9.46,2.79,9.87
-0.13,-9.46,2.81,9.87
-0.13,-9.47,2.83,9.88
-0.11,-9.43,2.83,9.84
-0.12,-9.46,2.86,9.88
-0.13,-9.46,2.87,9.88
-0.17,-9.47,2.88,9.90
-0.20,-9.46,2.89,9.90
-0.18,-9.45,2.90,9.89
-0.17,-9.42,2.86,9.85
-0.17,-9.41,2.82,9.82
-0.20,-9.41,2.80,9.82
-0.18,-9.38,2.75,9.78
-0.15,-9.40,2.75,9.80
-0.15,-9.41,2.76,9.81
-0.14,-9.42,2.79,9.83
-0.12,-9.45,2.82,9.86
-0.14,-9.43,2.86,9.86
-0.15,-9.42,2.87,9.85
-0.15,-9.43,2.91,9.88
-0.13,-9.42,2.92,9.87
-0.12,-9.41,2.93,9.86
-0.10,-9.40,2.92,9.84
-0.10,-9.39,2.92,9.83
-0.11,-9.39,2.92,9.84
-0.12,-9.38,2.90,9.82
-0.18,-9.40,2.96,9.85
-0.19,-9.38,2.98,9.84
-0.22,-9.40,2.96,9.86
-0.22,-9.43,2.97,9.88
-0.15,-9.40,2.92,9.84
-0.15,-9.41,2.92,9.85
-0.15,-9.41,2.91,9.85
-0.16,-9.39,2.90,9.83
-0.14,-9.43,2.89,9.86
-0.17,-9.38,2.90,9.82
-0.18,-9.45,2.89,9.89
-0.19,-9.43,2.91,9.87
-0.19,-9.45,2.92,9.89
-0.20,-9.44,2.94,9.89
-0.20,-9.42,2.93,9.87
-0.19,-9.42,2.91,9.86
-0.19,-9.40,2.89,9.84
-0.20,-9.38,2.87,9.82
-0.15,-9.39,2.90,9.83
-0.16,-9.40,2.93,9.85
-0.15,-9.41,2.91,9.85
-0.18,-9.45,2.96,9.90
-0.14,-9.43,2.98,9.89
-0.13,-9.42,2.99,9.88
-0.14,-9.42,2.99,9.88
-0.14,-9.39,3.00,9.86
-0.12,-9.37,2.98,9.84
-0.17,-9.36,3.00,9.83
-0.16,-9.37,3.00,9.84
-0.17,-9.37,2.96,9.82
-0.17,-9.36,2.98,9.82
-0.18,-9.37,2.94,9.82
-0.15,-9.39,2.98,9.85
-0.16,-9.41,2.98,9.88
-0.14,-9.40,2.99,9.87
-0.18,-9.39,2.98,9.86
-0.20,-9.38,2.98,9.84
-0.20,-9.37,2.99,9.83
-0.21,-9.35,3.00,9.82
-0.26,-9.54,2.98,10.00
-0.09,-9.20,2.97,9.67
-0.15,-9.40,3.00,9.87
-0.17,-9.44,3.04,9.92
-0.16,-9.46,3.04,9.94
-0.14,-9.50,3.07,9.99
-0.14,-9.48,3.11,9.98
-0.10,-9.45,3.10,9.95
-0.14,-9.36,3.06,9.85
-0.14,-9.33,2.98,9.79
-0.15,-9.29,2.94,9.74
-0.12,-9.30,2.92,9.75
-0.16,-9.29,2.96,9.76
-0.16,-9.34,3.00,9.81
-0.18,-9.35,3.01,9.82
-0.14,-9.42,3.04,9.90
-0.15,-9.43,3.01,9.90
-0.11,-9.46,3.00,9.92
-0.07,-9.46,3.00,9.92
-0.06,-9.45,3.02,9.92
-0.05,-9.43,3.02,9.90
-0.09,-9.40,3.08,9.89
-0.13,-9.40,3.09,9.89
-0.17,-9.37,3.09,9.87
-0.18,-9.34,3.08,9.84
-0.20,-9.34,3.09,9.84
-0.20,-9.30,3.03,9.78
-0.23,-9.29,2.99,9.77
-0.22,-9.29,2.96,9.76
-0.18,-9.31,2.93,9.76
-0.19,-9.32,2.93,9.77
-0.17,-9.37,2.97,9.83
-0.13,-9.41,3.02,9.89
-0.16,-9.43,3.03,9.91
-0.18,-9.43,3.05,9.91
-0.15,-9.45,3.08,9.94
-0.16,-9.39,3.07,9.88
-0.15,-9.41,3.06,9.90
-0.16,-9.37,3.05,9.86
-0.13,-9.34,3.05,9.83
-0.11,-9.37,3.02,9.84
-0.11,-9.36,3.03,9.84
-0.10,-9.35,3.04,9.83
-0.15,-9.38,3.06,9.87
-0.20,-9.39,3.08,9.89
-0.19,-9.41,3.06,9.89
-0.18,-9.40,3.09,9.90
-0.17,-9.37,3.03,9.85
-0.14,-9.37,3.05,9.85
-0.16,-9.34,3.04,9.82
-0.14,-9.31,3.04,9.80
-0.15,-9.33,3.05,9.82
-0.16,-9.33,3.06,9.82
-0.16,-9.35,3.07,9.84
-0.18,-9.36,3.09,9.86
-0.18,-9.38,3.06,9.87
-0.20,-9.38,3.07,9.87
-0.17,-9.38,3.04,9.86
-0.17,-9.40,3.06,9.89
-0.15,-9.41,3.10,9.91
-0.13,-9.43,3.12,9.93
-0.16,-9.42,3.10,9.92
-0.13,-9.40,3.10,9.90
-0.13,-9.37,3.13,9.88
-0.14,-9.32,3.07,9.81
-0.09,-9.31,3.07,9.80
-0.11,-9.27,3.01,9.75
-0.12,-9.32,3.01,9.79
-0.14,-9.32,3.04,9.80
-0.14,-9.35,3.04,9.84
-0.17,-9.37,3.07,9.86
-0.17,-9.37,3.08,9.86
-0.17,-9.39,3.12,9.89
-0.16,-9.37,3.11,9.88
-0.15,-9.37,3.10,9.87
-0.15,-9.36,3.10,9.86
-0.19,-9.32,3.09,9.82
-0.20,-9.32,3.06,9.81
-0.19,-9.32,3.07,9.81
-0.16,-9.33,3.08,9.82
-0.14,-9.35,3.09,9.85
-0.15,-9.43,3.10,9.92
-0.14,-9.45,3.13,9.96
-0.13,-9.44,3.16,9.96
-0.16,-9.42,3.23,9.96
-0.15,-9.34,3.18,9.87
-0.16,-9.34,3.16,9.86
-0.18,-9.32,3.08,9.81
-0.16,-9.26,2.99,9.74
-0.20,-9.28,2.98,9.75
-0.18,-9.31,3.02,9.79
-0.18,-9.34,3.06,9.83
-0.20,-9.38,3.07,9.87
-0.17,-9.44,3.09,9.94
-0.14,-9.46,3.06,9.94
-0.08,-9.45,3.04,9.93
-0.08,-9.47,3.06,9.96
-0.05,-9.43,3.08,9.92
-0.08,-9.40,3.11,9.90
-0.12,-9.35,3.12,9.85
-0.15,-9.36,3.13,9.87
-0.18,-9.32,3.13,9.83
-0.18,-9.30,3.10,9.81
-0.20,-9.29,3.10,9.80
-0.19,-9.31,3.05,9.79
-0.20,-9.30,3.01,9.78
-0.21,-9.33,3.00,9.80
-0.20,-9.33,3.00,9.81
-0.15,-9.37,3.00,9.84
-0.18,-9.40,3.02,9.87
-0.15,-9.40,3.05,9.88
-0.13,-9.41,3.07,9.90
-0.14,-9.40,3.06,9.89
-0.15,-9.39,3.07,9.88
-0.14,-9.36,3.08,9.85
-0.17,-9.36,3.06,9.85
-0.15,-9.34,3.05,9.82
-0.14,-9.32,3.02,9.80
-0.14,-9.35,3.01,9.82
-0.12,-9.37,3.00,9.84
-0.15,-9.37,3.04,9.85
-0.16,-9.38,3.04,9.87
-0.17,-9.40,3.08,9.89
-0.18,-9.41,3.06,9.90
-0.18,-9.43,3.04,9.90
-0.17,-9.42,3.03,9.90
-0.16,-9.36,3.00,9.83
-0.14,-9.35,2.97,9.81
-0.15,-9.35,2.99,9.81
-0.14,-9.34,2.99,9.81
-0.15,-9.36,2.98,9.83
-0.14,-9.36,2.99,9.82
-0.14,-9.36,3.01,9.84
-0.17,-9.42,2.99,9.88
-0.15,-9.40,2.99,9.86
-0.15,-9.42,3.00,9.89
-0.11,-9.43,2.99,9.89
-0.14,-9.43,3.00,9.90
-0.15,-9.41,3.00,9.88
-0.13,-9.44,3.01,9.91
-0.16,-9.41,3.02,9.88
-0.16,-9.40,3.02,9.88
-0.16,-9.35,3.01,9.82
-0.15,-9.35,2.99,9.81
-0.14,-9.34,2.99,9.81
-0.15,-9.33,3.00,9.81
-0.14,-9.36,2.99,9.83
-0.16,-9.36,3.00,9.83
-0.14,-9.39,3.00,9.86
-0.18,-9.39,3.02,9.87
-0.15,-9.38,2.99,9.85
-0.15,-9.40,2.99,9.86
-0.16,-9.38,2.97,9.84
-0.13,-9.42,2.96,9.88
-0.15,-9.37,2.94,9.82
-0.12,-9.37,2.96,9.83
-0.15,-9.42,2.96,9.88
-0.12,-9.46,3.01,9.93
-0.12,-9.49,3.04,9.97
-0.14,-9.48,3.05,9.96
-0.14,-9.42,3.03,9.90
-0.13,-9.43,2.98,9.89
-0.16,-9.40,2.94,9.85
-0.18,-9.38,2.92,9.83
-0.16,-9.38,2.96,9.84
-0.18,-9.39,2.94,9.84
-0.20,-9.36,2.97,9.82
-0.20,-9.38,2.97,9.84
-0.19,-9.40,2.96,9.86
-0.15,-9.40,2.91,9.85
-0.12,-9.40,2.88,9.83
-0.13,-9.45,2.92,9.89
-0.08,-9.44,2.89,9.87
-0.08,-9.44,2.89,9.87
-0.07,-9.43,2.95,9.88
-0.11,-9.44,2.99,9.90
-0.12,-9.43,2.99,9.89
-0.12,-9.43,2.95,9.88
-0.14,-9.41,2.93,9.86
-0.16,-9.42,2.94,9.86
-0.19,-9.40,2.86,9.83
-0.17,-9.37,2.84,9.79
-0.17,-9.39,2.81,9.81
-0.18,-9.40,2.82,9.82
-0.16,-9.40,2.84,9.82
-0.14,-9.42,2.85,9.84
-0.15,-9.43,2.84,9.85
-0.14,-9.42,2.87,9.85
-0.17,-9.41,2.87,9.84
-0.17,-9.43,2.88,9.86
-0.18,-9.40,2.90,9.84
-0.18,-9.42,2.88,9.85
-0.16,-9.44,2.91,9.88
-0.15,-9.42,2.87,9.85
-0.14,-9.43,2.84,9.85
-0.14,-9.47,2.86,9.89
-0.16,-9.46,2.88,9.89
-0.16,-9.50,2.88,9.92
-0.20,-9.45,2.85,9.87
-0.19,-9.44,2.83,9.86
-0.20,-9.43,2.82,9.85
-0.16,-9.42,2.78,9.82
-0.15,-9.45,2.80,9.85
-0.16,-9.43,2.79,9.84
-0.12,-9.45,2.81,9.86
-0.14,-9.43,2.76,9.83
-0.16,-9.41,2.78,9.82
-0.16,-9.45,2.76,9.84
-0.17,-9.42,2.77,9.82
-0.18,-9.42,2.79,9.83
-0.17,-9.43,2.79,9.84
-0.15,-9.44,2.77,9.84
-0.12,-9.50,2.76,9.89
-0.15,-9.49,2.79,9.89
-0.14,-9.50,2.83,9.91
-0.14,-9.50,2.79,9.90
-0.16,-9.51,2.82,9.92
-0.20,-9.49,2.81,9.90
-0.13,-9.49,2.82,9.90
-0.16,-9.45,2.81,9.86
-0.18,-9.40,2.79,9.81
-0.17,-9.42,2.81,9.83
-0.15,-9.40,2.79,9.81
-0.18,-9.40,2.78,9.80
-0.19,-9.38,2.81,9.79
-0.16,-9.37,2.81,9.78
-0.15,-9.41,2.79,9.82
-0.13,-9.43,2.80,9.84
-0.16,-9.46,2.78,9.86
-0.14,-9.43,2.81,9.84
-0.19,-9.46,2.79,9.86
-0.16,-9.45,2.77,9.85
-0.20,-9.43,2.76,9.83
-0.15,-9.47,2.77,9.87
-0.15,-9.52,2.80,9.93
-0.15,-9.53,2.84,9.95
-0.18,-9.52,2.84,9.94
-0.16,-9.50,2.86,9.93
-0.15,-9.47,2.81,9.88
-0.14,-9.44,2.75,9.83
-0.16,-9.41,2.74,9.80
-0.17,-9.43,2.73,9.82
-0.17,-9.44,2.76,9.84
-0.18,-9.46,2.77,9.86
-0.19,-9.45,2.78,9.85
-0.19,-9.45,2.79,9.85
-0.18,-9.49,2.74,9.87
-0.18,-9.46,2.68,9.83
-0.19,-9.44,2.67,9.81
-0.16,-9.46,2.66,9.82
-0.12,-9.46,2.72,9.84
-0.09,-9.47,2.72,9.85
-0.12,-9.50,2.74,9.89
-0.12,-9.48,2.73,9.86
-0.15,-9.51,2.75,9.90
-0.15,-9.49,2.76,9.89
-0.18,-9.50,2.76,9.89
-0.19,-9.47,2.73,9.86
-0.20,-9.46,2.74,9.86
-0.18,-9.46,2.69,9.84
-0.18,-9.45,2.67,9.82
-0.15,-9.46,2.66,9.83
-0.18,-9.44,2.65,9.81
-0.17,-9.47,2.65,9.83
-0.17,-9.46,2.66,9.83
-0.17,-9.45,2.69,9.83
-0.15,-9.48,2.66,9.85
-0.19,-9.47,2.71,9.85
-0.17,-9.43,2.70,9.82
-0.20,-9.46,2.70,9.84
-0.17,-9.46,2.69,9.84
-0.17,-9.48,2.69,9.85
-0.15,-9.48,2.69,9.85
-0.18,-9.50,2.67,9.87
-0.13,-9.49,2.70,9.87
-0.13,-9.48,2.67,9.85
-0.13,-9.47,2.68,9.84
-0.18,-9.50,2.63,9.86
-0.18,-9.47,2.65,9.84
-0.19,-9.51,2.62,9.87
-0.18,-9.50,2.62,9.86
-0.17,-9.53,2.61,9.88
-0.18,-9.51,2.65,9.87
-0.17,-9.51,2.62,9.87
-0.15,-9.50,2.64,9.86
-0.16,-9.48,2.63,9.84
-0.16,-9.45,2.62,9.81
-0.18,-9.45,2.62,9.81
-0.19,-9.49,2.61,9.84
-0.18,-9.48,2.60,9.83
-0.17,-9.47,2.62,9.83
-0.21,-9.48,2.62,9.84
-0.18,-9.49,2.62,9.85
-0.15,-9.49,2.62,9.85
-0.19,-9.50,2.62,9.86
-0.15,-9.54,2.64,9.90
-0.17,-9.54,2.64,9.90
-0.16,-9.52,2.65,9.88
-0.15,-9.54,2.64,9.90
-0.15,-9.52,2.66,9.89
-0.16,-9.49,2.62,9.85
-0.16,-9.49,2.61,9.84
-0.18,-9.50,2.61,9.86
-0.19,-9.45,2.60,9.80
-0.16,-9.45,2.60,9.80
-0.17,-9.48,2.62,9.83
-0.15,-9.46,2.60,9.81
-0.14,-9.49,2.58,9.84
-0.17,-9.49,2.59,9.84
-0.17,-9.50,2.60,9.85
-0.20,-9.50,2.59,9.85
-0.19,-9.52,2.61,9.87
-0.20,-9.51,2.58,9.86
-0.20,-9.50,2.57,9.85
-0.21,-9.52,2.55,9.86
-0.17,-9.50,2.57,9.84
-0.17,-9.51,2.57,9.85
-0.17,-9.54,2.62,9.90
-0.14,-9.54,2.67,9.91
-0.15,-9.52,2.69,9.89
-0.18,-9.50,2.67,9.87
-0.16,-9.48,2.61,9.83
-0.17,-9.47,2.61,9.83
-0.17,-9.48,2.59,9.83
-0.14,-9.49,2.57,9.84
-0.16,-9.48,2.57,9.83
-0.20,-9.53,2.61,9.88
-0.18,-9.50,2.63,9.86
-0.17,-9.48,2.60,9.83
-0.18,-9.51,2.56,9.85
-0.13,-9.48,2.54,9.82
-0.16,-9.49,2.56,9.82
-0.14,-9.49,2.56,9.83
-0.15,-9.51,2.57,9.85
-0.14,-9.49,2.57,9.83
-0.14,-9.53,2.59,9.88
-0.17,-9.53,2.60,9.88
-0.18,-9.52,2.60,9.87
-0.20,-9.52,2.58,9.86
-0.20,-9.50,2.56,9.84
-0.21,-9.49,2.55,9.83
-0.19,-9.50,2.52,9.83
-0.17,-9.48,2.51,9.80
-0.19,-9.50,2.51,9.83
-0.19,-9.51,2.48,9.83
-0.18,-9.54,2.52,9.87
-0.18,-9.52,2.53,9.85
-0.18,-9.53,2.56,9.86
-0.20,-9.50,2.56,9.84
-0.19,-9.50,2.56,9.84
-0.18,-9.47,2.55,9.81
-0.18,-9.47,2.55,9.81
-0.21,-9.47,2.60,9.82
-0.18,-9.47,2.59,9.82
-0.15,-9.49,2.56,9.83
-0.19,-9.53,2.57,9.87
-0.16,-9.53,2.60,9.88
-0.15,-9.55,2.59,9.90
-0.15,-9.53,2.57,9.87
-0.19,-9.52,2.55,9.86
-0.17,-9.52,2.55,9.86
-0.21,-9.54,2.53,9.87
-0.21,-9.56,2.52,9.89
-0.20,-9.57,2.52,9.90
-0.17,-9.53,2.54,9.87
-0.17,-9.54,2.51,9.86
-0.17,-9.53,2.53,9.86
-0.16,-9.53,2.50,9.86
-0.18,-9.53,2.51,9.86
-0.20,-9.50,2.52,9.83
-0.19,-9.51,2.50,9.84
-0.20,-9.52,2.49,9.84
-0.18,-9.50,2.48,9.83
-0.18,-9.48,2.50,9.81
-0.17,-9.52,2.51,9.85
-0.16,-9.51,2.53,9.84
-0.17,-9.54,2.55,9.87
-0.19,-9.54,2.55,9.88
-0.16,-9.54,2.58,9.89
-0.19,-9.54,2.57,9.88
-0.18,-9.55,2.53,9.88
-0.16,-9.53,2.54,9.87
-0.19,-9.50,2.54,9.83
-0.19,-9.50,2.52,9.83
-0.20,-9.50,2.50,9.82
-0.22,-9.50,2.49,9.82
-0.23,-9.50,2.51,9.83
-0.19,-9.51,2.50,9.83
-0.21,-9.50,2.52,9.83
-0.20,-9.52,2.50,9.84
-0.18,-9.50,2.52,9.83
-0.19,-9.52,2.53,9.85
-0.17,-9.52,2.53,9.85
-0.18,-9.53,2.54,9.86
-0.18,-9.54,2.52,9.86
-0.18,-9.54,2.50,9.86
-0.17,-9.54,2.50,9.87
-0.16,-9.54,2.48,9.86
-0.18,-9.55,2.50,9.87
-0.18,-9.51,2.49,9.83
-0.17,-9.50,2.50,9.82
-0.19,-9.50,2.47,9.82
-0.19,-9.51,2.47,9.83
-0.23,-9.53,2.50,9.85
-0.19,-9.54,2.50,9.87
-0.18,-9.57,2.53,9.90
-0.15,-9.61,2.58,9.95
-0.17,-9.57,2.59,9.91
-0.16,-9.55,2.55,9.89
-0.15,-9.49,2.48,9.81
-0.13,-9.48,2.47,9.79
-0.15,-9.50,2.44,9.81
-0.16,-9.51,2.46,9.82
-0.18,-9.50,2.49,9.82
-0.18,-9.52,2.50,9.84
-0.20,-9.51,2.53,9.85
-0.20,-9.54,2.53,9.87
-0.20,-9.54,2.51,9.87
-0.17,-9.54,2.46,9.86
-0.14,-9.53,2.48,9.85
-0.15,-9.51,2.45,9.82
-0.15,-9.55,2.42,9.85
-0.13,-9.53,2.44,9.84
-0.13,-9.51,2.46,9.83
-0.16,-9.57,2.48,9.89
-0.18,-9.56,2.46,9.87
-0.16,-9.55,2.45,9.86
-0.18,-9.55,2.45,9.86
-0.20,-9.53,2.44,9.84
-0.22,-9.53,2.41,9.83
-0.20,-9.56,2.42,9.86
-0.20,-9.54,2.43,9.85
-0.19,-9.53,2.43,9.84
-0.18,-9.53,2.40,9.83
-0.17,-9.52,2.41,9.82
-0.16,-9.48,2.42,9.78
-0.16,-9.48,2.40,9.79
-0.18,-9.51,2.39,9.81
-0.18,-9.52,2.40,9.82
-0.16,-9.50,2.43,9.81
-0.18,-9.54,2.42,9.84
-0.19,-9.53,2.43,9.83
-0.16,-9.57,2.43,9.88
-0.16,-9.55,2.44,9.86
-0.17,-9.59,2.47,9.91
-0.18,-9.59,2.48,9.91
-0.18,-9.57,2.45,9.88
-0.20,-9.54,2.42,9.85
-0.19,-9.55,2.41,9.85
-0.18,-9.54,2.38,9.83
-0.20,-9.54,2.38,9.84
-0.17,-9.53,2.38,9.82
-0.16,-9.55,2.38,9.84
-0.15,-9.52,2.39,9.82
-0.16,-9.55,2.40,9.85
-0.18,-9.52,2.37,9.81
-0.14,-9.54,2.40,9.84
-0.17,-9.56,2.40,9.85
-0.16,-9.53,2.39,9.83
-0.17,-9.55,2.37,9.84
-0.18,-9.55,2.37,9.84
-0.14,-9.54,2.38,9.83
-0.15,-9.55,2.41,9.85
-0.17,-9.58,2.42,9.89
-0.17,-9.57,2.44,9.88
-0.16,-9.57,2.46,9.88
-0.15,-9.56,2.44,9.86
-0.18,-9.54,2.44,9.85
-0.16,-9.55,2.46,9.87
-0.11,-9.55,2.44,9.86
-0.11,-9.53,2.41,9.83
-0.11,-9.54,2.38,9.84
-0.16,-9.56,2.38,9.86
-0.18,-9.51,2.37,9.80
-0.18,-9.53,2.38,9.83
-0.17,-9.52,2.38,9.81
-0.18,-9.52,2.44,9.82
-0.17,-9.50,2.47,9.82
-0.18,-9.52,2.47,9.84
-0.18,-9.55,2.47,9.87
-0.16,-9.53,2.45,9.84
-0.18,-9.58,2.46,9.89
-0.19,-9.57,2.43,9.88
-0.17,-9.57,2.41,9.87
-0.17,-9.58,2.41,9.88
-0.21,-9.56,2.41,9.86
-0.20,-9.55,2.43,9.85
-0.19,-9.53,2.42,9.83
-0.17,-9.54,2.39,9.84
-0.18,-9.51,2.38,9.81
-0.20,-9.55,2.37,9.84
-0.17,-9.51,2.40,9.81
-0.17,-9.57,2.41,9.87
-0.12,-9.59,2.47,9.91
-0.16,-9.62,2.48,9.94
-0.14,-9.61,2.47,9.93
-0.12,-9.55,2.46,9.87
-0.15,-9.55,2.42,9.85
-0.13,-9.53,2.38,9.82
-0.16,-9.56,2.39,9.86
-0.16,-9.54,2.37,9.83
-0.19,-9.54,2.42,9.85
-0.18,-9.51,2.45,9.83
-0.21,-9.53,2.47,9.85
-0.22,-9.54,2.42,9.84
-0.18,-9.57,2.37,9.86
-0.17,-9.55,2.37,9.84
-0.14,-9.57,2.37,9.86
-0.12,-9.57,2.37,9.86
-0.08,-9.58,2.40,9.87
-0.10,-9.57,2.41,9.87
-0.09,-9.55,2.44,9.85
-0.14,-9.57,2.43,9.88
-0.14,-9.57,2.46,9.89
-0.17,-9.57,2.43,9.87
-0.17,-9.54,2.43,9.85
-0.20,-9.49,2.40,9.79
-0.17,-9.52,2.41,9.82
-0.17,-9.50,2.40,9.80
-0.19,-9.50,2.43,9.81
-0.19,-9.52,2.43,9.82
-0.19,-9.56,2.45,9.87
-0.19,-9.55,2.46,9.87
-0.17,-9.53,2.47,9.84
-0.18,-9.55,2.49,9.87
-0.19,-9.53,2.49,9.85
-0.15,-9.51,2.49,9.83
-0.14,-9.53,2.48,9.85
-0.19,-9.51,2.47,9.83
-0.17,-9.50,2.48,9.82
-0.18,-9.55,2.48,9.87
-0.18,-9.53,2.49,9.85
-0.18,-9.55,2.51,9.88
-0.20,-9.58,2.52,9.91
-0.18,-9.55,2.52,9.88
-0.22,-9.53,2.52,9.86
-0.20,-9.50,2.49,9.83
-0.18,-9.54,2.50,9.86
-0.16,-9.53,2.53,9.86
-0.15,-9.54,2.54,9.87
-0.14,-9.52,2.52,9.85
-0.10,-9.54,2.51,9.86
-0.15,-9.49,2.48,9.81
-0.16,-9.50,2.50,9.83
-0.19,-9.49,2.49,9.82
-0.22,-9.48,2.51,9.81
-0.24,-9.50,2.51,9.83
-0.24,-9.46,2.50,9.79
-0.23,-9.50,2.50,9.83
-0.21,-9.51,2.56,9.85
-0.18,-9.52,2.58,9.86
-0.16,-9.52,2.60,9.87
-0.17,-9.53,2.63,9.88
-0.13,-9.54,2.62,9.90
-0.15,-9.57,2.61,9.92
-0.14,-9.52,2.62,9.88
-0.13,-9.54,2.61,9.89
-0.16,-9.53,2.60,9.88
-0.15,-9.51,2.60,9.86
-0.14,-9.51,2.58,9.86
-0.17,-9.52,2.58,9.86
-0.16,-9.51,2.58,9.85
-0.20,-9.51,2.59,9.86
-0.20,-9.49,2.61,9.84
-0.20,-9.47,2.62,9.83
-0.23,-9.47,2.60,9.82
-0.24,-9.47,2.61,9.82
-0.24,-9.47,2.62,9.82
-0.25,-9.46,2.61,9.81
-0.23,-9.47,2.61,9.83
-0.26,-9.48,2.64,9.84
-0.23,-9.48,2.64,9.84
-0.25,-9.48,2.64,9.84
-0.23,-9.50,2.66,9.87
-0.22,-9.47,2.67,9.84
-0.17,-9.47,2.66,9.84
-0.21,-9.49,2.67,9.85
-0.18,-9.50,2.67,9.87
-0.16,-9.51,2.69,9.89
-0.15,-9.53,2.73,9.92
-0.16,-9.56,2.74,9.95
-0.12,-9.59,2.76,9.98
-0.16,-9.55,2.76,9.94
-0.15,-9.46,2.72,9.84
-0.18,-9.45,2.66,9.82
-0.16,-9.41,2.64,9.77
-0.19,-9.37,2.66,9.74
-0.19,-9.39,2.68,9.77
-0.21,-9.42,2.70,9.80
-0.22,-9.45,2.73,9.84
-0.20,-9.46,2.70,9.84
-0.19,-9.46,2.70,9.84
-0.16,-9.50,2.64,9.86
-0.13,-9.55,2.70,9.92
-0.11,-9.52,2.67,9.89
-0.12,-9.55,2.73,9.93
-0.13,-9.52,2.72,9.90
-0.11,-9.49,2.75,9.88
-0.15,-9.54,2.75,9.93
-0.19,-9.50,2.75,9.89
-0.19,-9.50,2.76,9.90
-0.21,-9.44,2.72,9.82
-0.21,-9.42,2.69,9.80
-0.18,-9.40,2.69,9.78
-0.21,-9.36,2.65,9.73
-0.20,-9.40,2.68,9.77
-0.23,-9.40,2.68,9.78
-0.20,-9.41,2.71,9.80
-0.22,-9.44,2.73,9.83
-0.16,-9.46,2.75,9.85
-0.20,-9.45,2.78,9.85
-0.21,-9.47,2.78,9.87
-0.19,-9.45,2.80,9.85
-0.18,-9.46,2.79,9.86
-0.15,-9.44,2.81,9.85
-0.17,-9.43,2.78,9.83
-0.18,-9.46,2.78,9.86
-0.18,-9.45,2.78,9.85
-0.19,-9.45,2.79,9.85
-0.17,-9.46,2.80,9.87
-0.21,-9.45,2.79,9.86
-0.19,-9.46,2.78,9.87
-0.18,-9.48,2.77,9.88
-0.18,-9.49,2.76,9.88
-0.17,-9.47,2.76,9.86
-0.17,-9.46,2.78,9.87
-0.17,-9.49,2.76,9.88
-0.16,-9.46,2.79,9.87
-0.19,-9.46,2.80,9.87
-0.17,-9.45,2.78,9.85
-0.21,-9.42,2.78,9.82
-0.22,-9.44,2.75,9.83
-0.18,-9.43,2.77,9.83
-0.22,-9.43,2.76,9.83
-0.20,-9.43,2.78,9.84
-0.19,-9.47,2.78,9.87
-0.17,-9.44,2.80,9.85
-0.17,-9.48,2.85,9.90
-0.16,-9.48,2.87,9.90
-0.17,-9.48,2.87,9.91
-0.15,-9.49,2.89,9.92
-0.14,-9.44,2.90,9.88
-0.17,-9.41,2.87,9.84
-0.14,-9.40,2.88,9.84
-0.16,-9.40,2.87,9.83
-0.17,-9.37,2.84,9.79
-0.17,-9.36,2.85,9.79
-0.17,-9.36,2.85,9.79
-0.19,-9.39,2.88,9.82
-0.18,-9.40,2.88,9.83
-0.17,-9.45,2.90,9.89
-0.20,-9.44,2.92,9.88
-0.20,-9.46,2.93,9.91
-0.17,-9.42,2.95,9.87
-0.19,-9.41,2.93,9.86
-0.20,-9.40,2.94,9.85
-0.21,-9.37,2.94,9.82
-0.19,-9.36,2.90,9.80
-0.22,-9.35,2.89,9.79
-0.19,-9.36,2.89,9.80
-0.18,-9.42,2.93,9.86
-0.19,-9.46,2.96,9.92
-0.18,-9.50,2.99,9.96
-0.18,-9.50,3.04,9.97
-0.17,-9.49,3.04,9.97
-0.17,-9.42,2.99,9.88
-0.20,-9.40,2.95,9.85
-0.20,-9.36,2.89,9.80
-0.21,-9.33,2.88,9.77
-0.20,-9.34,2.93,9.79
-0.22,-9.36,2.95,9.82
-0.23,-9.37,2.96,9.83
-0.21,-9.44,2.95,9.89
-0.21,-9.45,2.92,9.89
-0.18,-9.45,2.90,9.89
-0.15,-9.43,2.93,9.88
-0.11,-9.44,2.96,9.89
-0.12,-9.41,2.97,9.87
-0.12,-9.43,2.99,9.89
-0.18,-9.42,3.04,9.90
-0.18,-9.42,3.02,9.90
-0.20,-9.40,3.02,9.88
-0.19,-9.38,3.01,9.85
-0.24,-9.33,2.98,9.80
-0.22,-9.35,2.95,9.81
-0.21,-9.37,2.93,9.82
-0.22,-9.35,2.92,9.80
-0.22,-9.36,2.92,9.81
-0.21,-9.36,2.88,9.80
-0.19,-9.37,2.93,9.82
-0.20,-9.38,2.94,9.83
-0.19,-9.37,3.01,9.84
-0.21,-9.39,3.03,9.87
-0.21,-9.40,3.04,9.88
-0.21,-9.39,3.07,9.88
-0.19,-9.40,3.04,9.88
-0.19,-9.36,3.07,9.86
-0.16,-9.39,3.02,9.87
-0.16,-9.39,3.04,9.87
-0.18,-9.39,3.04,9.87
-0.19,-9.39,3.07,9.88
-0.21,-9.40,3.05,9.89
-0.22,-9.39,3.05,9.88
-0.21,-9.40,3.07,9.88
-0.17,-9.39,3.01,9.87
-0.17,-9.39,3.04,9.87
-0.15,-9.38,3.02,9.85
-0.17,-9.33,3.02,9.81
-0.14,-9.34,3.04,9.83
-0.15,-9.34,3.01,9.81
-0.15,-9.35,3.01,9.83
-0.18,-9.35,3.03,9.84
-0.20,-9.36,3.02,9.84
-0.19,-9.39,3.05,9.87
-0.23,-9.39,3.05,9.87
-0.20,-9.42,3.05,9.90
-0.22,-9.41,3.06,9.90
-0.19,-9.43,3.09,9.92
-0.18,-9.41,3.10,9.91
-0.17,-9.41,3.10,9.91
-0.19,-9.39,3.09,9.88
-0.18,-9.36,3.06,9.85
-0.18,-9.37,3.06,9.86
-0.17,-9.30,3.03,9.78
-0.14,-9.32,3.03,9.80
-0.14,-9.30,3.02,9.78
-0.17,-9.32,3.06,9.81
-0.18,-9.32,3.06,9.81
-0.22,-9.32,3.08,9.82
-0.23,-9.35,3.10,9.85
-0.22,-9.34,3.09,9.84
-0.21,-9.34,3.05,9.83
-0.21,-9.38,3.07,9.87
-0.20,-9.39,3.09,9.89
-0.17,-9.35,3.09,9.85
-0.15,-9.42,3.11,9.92
-0.17,-9.45,3.15,9.97
-0.16,-9.45,3.18,9.98
-0.16,-9.43,3.20,9.96
-0.18,-9.35,3.13,9.86
-0.16,-9.34,3.10,9.84
-0.21,-9.26,3.04,9.75
-0.21,-9.25,3.02,9.73
-0.19,-9.28,3.06,9.77
-0.21,-9.30,3.08,9.80
-0.20,-9.39,3.14,9.90
-0.23,-9.41,3.14,9.92
-0.19,-9.44,3.10,9.93
-0.18,-9.44,3.08,9.93
-0.16,-9.43,3.09,9.92
-0.10,-9.42,3.08,9.91
-0.12,-9.40,3.07,9.89
-0.11,-9.34,3.12,9.85
-0.14,-9.35,3.14,9.86
-0.17,-9.34,3.15,9.86
-0.18,-9.31,3.18,9.84
-0.20,-9.32,3.16,9.84
-0.22,-9.32,3.15,9.84
-0.23,-9.30,3.11,9.81
-0.23,-9.29,3.08,9.79
-0.21,-9.29,3.07,9.79
-0.21,-9.30,3.07,9.79
-0.19,-9.35,3.07,9.84
-0.19,-9.34,3.07,9.83
-0.19,-9.33,3.10,9.84
-0.16,-9.32,3.13,9.84
-0.18,-9.35,3.15,9.86
-0.19,-9.35,3.17,9.87
-0.18,-9.37,3.19,9.90
-0.19,-9.33,3.20,9.87
-0.17,-9.34,3.18,9.87
-0.17,-9.35,3.13,9.87
-0.15,-9.35,3.15,9.87
-0.20,-9.37,3.17,9.89
-0.22,-9.36,3.17,9.88
-0.22,-9.35,3.20,9.88
-0.23,-9.37,3.16,9.89
-0.20,-9.35,3.13,9.86
-0.21,-9.36,3.13,9.87
-0.18,-9.35,3.12,9.86
-0.19,-9.32,3.10,9.82
-0.17,-9.30,3.09,9.80
-0.17,-9.33,3.08,9.82
-0.21,-9.31,3.11,9.82
-0.19,-9.34,3.12,9.85
-0.19,-9.34,3.15,9.86
-0.20,-9.35,3.12,9.86
-0.17,-9.35,3.12,9.86
-0.15,-9.35,3.12,9.86
-0.13,-9.37,3.12,9.88
-0.16,-9.36,3.14,9.88
-0.15,-9.39,3.16,9.91
-0.18,-9.40,3.16,9.92
-0.16,-9.37,3.18,9.90
-0.19,-9.33,3.18,9.86
-0.18,-9.32,3.17,9.85
-0.16,-9.31,3.15,9.83
-0.16,-9.31,3.14,9.82
-0.15,-9.31,3.14,9.83
-0.18,-9.29,3.14,9.80
-0.22,-9.30,3.15,9.83
-0.22,-9.29,3.17,9.82
-0.25,-9.29,3.17,9.82
-0.20,-9.31,3.14,9.83
-0.20,-9.33,3.13,9.84
-0.17,-9.35,3.13,9.86
-0.17,-9.35,3.15,9.87
-0.14,-9.35,3.15,9.87
-0.16,-9.40,3.18,9.93
-0.16,-9.37,3.26,9.92
-0.16,-9.37,3.28,9.93
-0.19,-9.32,3.21,9.85
-0.15,-9.30,3.13,9.81
-0.17,-9.30,3.12,9.81
-0.20,-9.26,3.08,9.76
-0.22,-9.31,3.10,9.81
-0.24,-9.33,3.12,9.84
-0.24,-9.36,3.15,9.88
-0.20,-9.38,3.17,9.91
-0.17,-9.41,3.14,9.92
-0.14,-9.44,3.08,9.93
-0.13,-9.42,3.05,9.90
-0.11,-9.45,3.09,9.94
-0.12,-9.37,3.12,9.88
-0.14,-9.35,3.12,9.86
-0.15,-9.32,3.19,9.85
-0.21,-9.33,3.17,9.85
-0.22,-9.32,3.17,9.85
-0.18,-9.28,3.18,9.81
-0.20,-9.30,3.13,9.81
-0.19,-9.28,3.13,9.79
-0.18,-9.30,3.07,9.80
-0.21,-9.30,3.09,9.81
-0.21,-9.32,3.08,9.82
-0.17,-9.35,3.06,9.84
-0.17,-9.35,3.09,9.85
-0.16,-9.38,3.11,9.88
-0.16,-9.39,3.11,9.89
-0.18,-9.38,3.13,9.89
-0.19,-9.35,3.12,9.86
-0.17,-9.36,3.13,9.87
-0.17,-9.37,3.13,9.88
-0.21,-9.36,3.12,9.87
-0.18,-9.30,3.12,9.81
-0.15,-9.36,3.10,9.86
-0.16,-9.35,3.07,9.84
-0.19,-9.37,3.11,9.87
-0.22,-9.38,3.13,9.89
-0.22,-9.38,3.13,9.89
-0.22,-9.38,3.12,9.88
-0.20,-9.38,3.08,9.87
-0.17,-9.38,3.05,9.87
-0.18,-9.39,3.06,9.88
-0.18,-9.35,3.01,9.82
-0.18,-9.35,3.00,9.82
-0.18,-9.34,3.00,9.81
-0.20,-9.32,3.02,9.80
-0.21,-9.34,3.00,9.82
-0.23,-9.37,3.03,9.85
-0.22,-9.40,3.01,9.87
-0.21,-9.41,3.02,9.88
-0.20,-9.39,3.05,9.88
-0.19,-9.40,3.04,9.88
-0.18,-9.41,3.07,9.90
-0.18,-9.41,3.08,9.91
-0.18,-9.41,3.07,9.90
-0.21,-9.39,3.10,9.89
-0.20,-9.39,3.08,9.88
-0.15,-9.38,3.06,9.87
-0.16,-9.36,3.05,9.84
-0.17,-9.33,3.02,9.81
-0.17,-9.33,3.00,9.80
-0.20,-9.33,3.01,9.81
-0.21,-9.32,3.04,9.81
-0.21,-9.31,3.04,9.80
-0.23,-9.34,3.01,9.81
-0.22,-9.37,3.03,9.85
-0.19,-9.38,3.01,9.85
-0.16,-9.38,3.01,9.85
-0.14,-9.44,3.03,9.92
-0.18,-9.48,3.04,9.96
-0.19,-9.48,3.09,9.97
-0.18,-9.42,3.06,9.91
-0.19,-9.43,3.06,9.91
-0.16,-9.40,2.99,9.86
-0.19,-9.39,2.98,9.85
-0.19,-9.37,2.98,9.84
-0.19,-9.40,3.01,9.87
-0.22,-9.35,3.03,9.83
-0.23,-9.36,3.05,9.85
-0.24,-9.41,2.99,9.88
-0.25,-9.40,2.91,9.84
-0.20,-9.39,2.87,9.82
-0.17,-9.39,2.88,9.82
-0.13,-9.39,2.93,9.84
-0.14,-9.38,2.94,9.84
-0.11,-9.41,2.93,9.86
-0.12,-9.40,2.98,9.86
-0.16,-9.44,2.99,9.90
-0.20,-9.42,2.99,9.89
-0.18,-9.43,2.97,9.89
-0.21,-9.43,2.97,9.89
-0.23,-9.40,2.91,9.84
-0.24,-9.37,2.91,9.82
-0.22,-9.39,2.87,9.82
-0.20,-9.39,2.86,9.82
-0.22,-9.36,2.86,9.79
-0.19,-9.41,2.84,9.83
-0.17,-9.40,2.85,9.82
-0.20,-9.41,2.88,9.85
-0.21,-9.43,2.90,9.86
-0.17,-9.41,2.91,9.85
-0.19,-9.41,2.90,9.85
-0.20,-9.43,2.90,9.87
-0.17,-9.40,2.91,9.84
-0.20,-9.41,2.92,9.86
-0.19,-9.42,2.91,9.86
-0.16,-9.43,2.84,9.85
-0.15,-9.44,2.88,9.87
-0.20,-9.47,2.89,9.90
-0.20,-9.48,2.88,9.91
-0.21,-9.44,2.91,9.88
-0.24,-9.47,2.85,9.89
-0.22,-9.45,2.85,9.88
-0.21,-9.47,2.80,9.87
-0.17,-9.45,2.81,9.86
-0.18,-9.41,2.78,9.81
-0.15,-9.40,2.79,9.81
-0.16,-9.42,2.79,9.83
-0.19,-9.42,2.77,9.82
-0.18,-9.38,2.78,9.78
-0.20,-9.41,2.76,9.81
-0.21,-9.40,2.78,9.81
-0.21,-9.43,2.79,9.83
-0.16,-9.47,2.80,9.87
-0.19,-9.46,2.79,9.87
-0.19,-9.48,2.82,9.90
-0.17,-9.50,2.81,9.91
-0.20,-9.51,2.85,9.93
-0.19,-9.49,2.85,9.90
-0.20,-9.48,2.81,9.89
-0.20,-9.46,2.81,9.87
-0.17,-9.47,2.77,9.87
-0.19,-9.44,2.76,9.84
-0.18,-9.43,2.76,9.82
-0.21,-9.41,2.75,9.80
-0.21,-9.42,2.75,9.82
-0.24,-9.43,2.76,9.83
-0.21,-9.42,2.76,9.82
-0.21,-9.44,2.74,9.84
-0.18,-9.43,2.76,9.83
-0.18,-9.46,2.71,9.84
-0.20,-9.48,2.72,9.86
-0.19,-9.48,2.71,9.86
-0.21,-9.50,2.74,9.89
-0.21,-9.52,2.78,9.92
-0.18,-9.54,2.78,9.94
-0.19,-9.56,2.79,9.96
-0.20,-9.51,2.79,9.91
-0.17,-9.45,2.77,9.85
-0.19,-9.42,2.73,9.81
-0.21,-9.42,2.68,9.80
-0.20,-9.43,2.65,9.80
-0.20,-9.46,2.71,9.85
-0.19,-9.46,2.75,9.86
-0.20,-9.49,2.76,9.88
-0.22,-9.47,2.78,9.88
-0.22,-9.47,2.72,9.86
-0.23,-9.45,2.72,9.84
-0.21,-9.44,2.70,9.82
-0.19,-9.43,2.70,9.81
-0.16,-9.42,2.69,9.80
-0.12,-9.43,2.68,9.80
-0.13,-9.44,2.69,9.82
-0.12,-9.44,2.67,9.81
-0.11,-9.49,2.68,9.86
-0.15,-9.49,2.69,9.87
-0.16,-9.51,2.67,9.88
-0.17,-9.51,2.67,9.88
-0.20,-9.54,2.66,9.91
-0.19,-9.52,2.64,9.88
-0.19,-9.53,2.63,9.89
-0.19,-9.54,2.62,9.89
-0.19,-9.51,2.63,9.87
-0.21,-9.53,2.65,9.89
-0.22,-9.53,2.67,9.90
-0.20,-9.49,2.64,9.85
-0.22,-9.47,2.63,9.83
-0.21,-9.48,2.63,9.84
-0.24,-9.45,2.64,9.82
-0.22,-9.43,2.64,9.80
-0.22,-9.44,2.65,9.81
-0.23,-9.45,2.64,9.81
-0.23,-9.49,2.67,9.86
-0.20,-9.47,2.66,9.84
-0.23,-9.49,2.68,9.86
-0.21,-9.48,2.70,9.86
-0.23,-9.49,2.67,9.86
-0.24,-9.49,2.65,9.86
-0.24,-9.50,2.66,9.86
-0.24,-9.51,2.65,9.87
-0.23,-9.50,2.65,9.87
-0.24,-9.50,2.67,9.87
-0.21,-9.49,2.68,9.86
-0.20,-9.52,2.65,9.89
-0.18,-9.50,2.64,9.86
-0.17,-9.46,2.62,9.82
-0.19,-9.46,2.62,9.82
-0.21,-9.46,2.61,9.81
-0.20,-9.49,2.58,9.84
-0.23,-9.49,2.59,9.84
-0.20,-9.50,2.59,9.84
-0.22,-9.50,2.60,9.85
-0.21,-9.50,2.60,9.85
-0.20,-9.51,2.59,9.86
-0.20,-9.53,2.61,9.88
-0.21,-9.54,2.62,9.90
-0.19,-9.55,2.62,9.91
-0.15,-9.58,2.61,9.93
-0.16,-9.56,2.61,9.91
-0.15,-9.57,2.61,9.92
-0.14,-9.52,2.58,9.86
-0.18,-9.52,2.56,9.86
-0.19,-9.49,2.60,9.84
-0.20,-9.48,2.59,9.83
-0.23,-9.44,2.62,9.80
-0.24,-9.43,2.64,9.80
-0.24,-9.41,2.64,9.78
-0.26,-9.43,2.64,9.80
-0.23,-9.45,2.63,9.82
-0.23,-9.44,2.64,9.81
-0.22,-9.46,2.63,9.82
-0.23,-9.45,2.62,9.81
-0.23,-9.50,2.61,9.85
-0.23,-9.48,2.61,9.84
-0.22,-9.50,2.61,9.85
-0.21,-9.52,2.63,9.88
-0.21,-9.51,2.61,9.87
-0.23,-9.51,2.63,9.87
-0.21,-9.50,2.61,9.86
-0.22,-9.51,2.58,9.86
-0.20,-9.53,2.60,9.88
-0.22,-9.53,2.59,9.87
-0.22,-9.51,2.58,9.86
-0.21,-9.51,2.57,9.85
-0.24,-9.51,2.55,9.85
-0.23,-9.49,2.55,9.83
-0.20,-9.50,2.51,9.83
-0.20,-9.53,2.52,9.86
-0.20,-9.54,2.55,9.88
-0.20,-9.55,2.56,9.89
-0.17,-9.59,2.59,9.93
-0.14,-9.58,2.60,9.93
-0.16,-9.52,2.62,9.87
-0.19,-9.48,2.57,9.82
-0.19,-9.47,2.53,9.81
-0.17,-9.52,2.50,9.84
-0.18,-9.51,2.54,9.84
-0.21,-9.51,2.55,9.85
-0.27,-9.52,2.60,9.87
-0.25,-9.51,2.60,9.86
-0.27,-9.48,2.60,9.84
-0.27,-9.47,2.51,9.80
-0.21,-9.49,2.50,9.82
-0.17,-9.47,2.50,9.80
-0.21,-9.50,2.52,9.83
-0.16,-9.54,2.54,9.87
-0.16,-9.55,2.55,9.89
-0.20,-9.53,2.59,9.88
-0.17,-9.51,2.62,9.86
-0.22,-9.51,2.61,9.86
-0.22,-9.52,2.61,9.87
-0.23,-9.52,2.56,9.86
-0.23,-9.52,2.55,9.86
-0.23,-9.52,2.53,9.85
-0.22,-9.52,2.50,9.84
-0.22,-9.50,2.49,9.82
-0.21,-9.48,2.51,9.81
-0.20,-9.48,2.51,9.81
-0.22,-9.48,2.52,9.81
-0.21,-9.49,2.54,9.83
-0.22,-9.48,2.54,9.82
-0.23,-9.51,2.54,9.84
-0.21,-9.48,2.52,9.81
-0.19,-9.50,2.55,9.83
-0.18,-9.49,2.56,9.83
-0.20,-9.52,2.54,9.85
-0.19,-9.54,2.55,9.88
-0.21,-9.52,2.54,9.86
-0.19,-9.56,2.56,9.90
-0.18,-9.55,2.57,9.89
-0.21,-9.54,2.54,9.87
-0.21,-9.51,2.51,9.84
-0.23,-9.52,2.50,9.85
-0.21,-9.51,2.51,9.83
-0.22,-9.56,2.52,9.89
-0.21,-9.52,2.51,9.85
-0.19,-9.53,2.52,9.85
-0.17,-9.53,2.50,9.85
-0.16,-9.53,2.51,9.85
-0.18,-9.49,2.49,9.82
-0.18,-9.50,2.49,9.82
-0.17,-9.52,2.50,9.84
-0.22,-9.51,2.45,9.82
-0.21,-9.52,2.44,9.83
-0.23,-9.51,2.46,9.83
-0.25,-9.50,2.49,9.83
-0.19,-9.51,2.49,9.84
-0.19,-9.52,2.51,9.85
-0.18,-9.52,2.52,9.84
-0.17,-9.54,2.55,9.88
-0.20,-9.54,2.53,9.87
-0.17,-9.58,2.51,9.91
-0.16,-9.55,2.53,9.88
-0.18,-9.55,2.52,9.88
-0.15,-9.51,2.51,9.84
-0.14,-9.50,2.50,9.83
-0.18,-9.50,2.46,9.81
-0.19,-9.49,2.47,9.81
-0.21,-9.49,2.48,9.81
-0.22,-9.50,2.48,9.82
-0.19,-9.53,2.50,9.85
-0.23,-9.52,2.51,9.85
-0.21,-9.53,2.51,9.86
-0.20,-9.54,2.52,9.87
-0.20,-9.52,2.51,9.84
-0.20,-9.54,2.51,9.87
-0.22,-9.56,2.51,9.89
-0.19,-9.57,2.51,9.90
-0.19,-9.54,2.53,9.87
-0.21,-9.51,2.48,9.83
-0.21,-9.52,2.48,9.84
-0.18,-9.50,2.49,9.83
-0.18,-9.51,2.47,9.83
-0.19,-9.50,2.46,9.81
-0.20,-9.53,2.50,9.86
-0.20,-9.52,2.50,9.84
-0.23,-9.49,2.50,9.82
-0.19,-9.55,2.50,9.87
-0.22,-9.53,2.54,9.86
-0.20,-9.52,2.51,9.84
-0.22,-9.54,2.53,9.87
-0.20,-9.53,2.49,9.86
-0.21,-9.53,2.50,9.86
-0.20,-9.52,2.49,9.84
-0.21,-9.53,2.47,9.85
-0.21,-9.54,2.50,9.86
-0.20,-9.56,2.55,9.89
-0.19,-9.57,2.58,9.92
-0.22,-9.55,2.58,9.89
-0.19,-9.51,2.56,9.85
-0.19,-9.52,2.48,9.84
-0.20,-9.48,2.47,9.80
-0.21,-9.51,2.45,9.82
-0.21,-9.52,2.43,9.83
-0.23,-9.49,2.48,9.81
-0.26,-9.52,2.50,9.84
-0.23,-9.50,2.53,9.84
-0.25,-9.53,2.53,9.86
-0.25,-9.56,2.48,9.88
-0.24,-9.57,2.43,9.87
-0.21,-9.52,2.43,9.83
-0.20,-9.54,2.46,9.85
-0.16,-9.56,2.45,9.87
-0.16,-9.56,2.50,9.88
-0.20,-9.55,2.54,9.89
-0.21,-9.54,2.53,9.87
-0.21,-9.53,2.53,9.86
-0.23,-9.49,2.50,9.82
-0.21,-9.49,2.50,9.82
-0.23,-9.48,2.48,9.80
-0.23,-9.50,2.46,9.82
-0.23,-9.51,2.44,9.82
-0.22,-9.49,2.48,9.81
-0.22,-9.50,2.50,9.83
-0.21,-9.52,2.49,9.84
-0.20,-9.51,2.51,9.84
-0.21,-9.48,2.53,9.82
-0.21,-9.50,2.52,9.83
-0.25,-9.51,2.51,9.84
-0.21,-9.53,2.50,9.86
-0.21,-9.52,2.51,9.85
-0.22,-9.54,2.50,9.86
-0.18,-9.56,2.53,9.89
-0.18,-9.54,2.49,9.86
-0.17,-9.59,2.50,9.91
-0.17,-9.56,2.51,9.88
-0.17,-9.58,2.54,9.91
-0.20,-9.55,2.49,9.87
-0.23,-9.55,2.49,9.88
-0.22,-9.53,2.49,9.85
-0.22,-9.54,2.47,9.86
-0.25,-9.55,2.46,9.87
-0.22,-9.56,2.46,9.88
-0.20,-9.50,2.48,9.82
-0.22,-9.54,2.48,9.86
-0.17,-9.51,2.47,9.82
-0.20,-9.49,2.47,9.81
-0.19,-9.51,2.46,9.82
-0.20,-9.49,2.50,9.81
-0.20,-9.53,2.46,9.85
-0.24,-9.52,2.47,9.84
-0.21,-9.54,2.46,9.85
-0.22,-9.53,2.47,9.85
-0.22,-9.53,2.52,9.86
-0.23,-9.55,2.52,9.88
-0.21,-9.56,2.51,9.89
-0.21,-9.55,2.53,9.88
-0.18,-9.57,2.55,9.91
-0.19,-9.53,2.57,9.88
-0.17,-9.53,2.56,9.87
-0.18,-9.50,2.55,9.84
-0.18,-9.50,2.53,9.83
-0.19,-9.49,2.51,9.82
-0.23,-9.48,2.52,9.81
-0.23,-9.49,2.50,9.82
-0.23,-9.51,2.54,9.84
-0.23,-9.48,2.55,9.82
-0.23,-9.51,2.55,9.85
-0.23,-9.52,2.57,9.86
-0.20,-9.50,2.56,9.84
-0.20,-9.50,2.57,9.84
-0.21,-9.52,2.57,9.86
-0.17,-9.51,2.56,9.85
-0.21,-9.53,2.57,9.87
-0.20,-9.53,2.58,9.88
-0.23,-9.50,2.60,9.85
-0.24,-9.49,2.61,9.84
-0.23,-9.49,2.61,9.85
-0.21,-9.51,2.59,9.86
-0.21,-9.51,2.61,9.86
-0.22,-9.49,2.59,9.84
-0.19,-9.50,2.61,9.85
-0.23,-9.50,2.61,9.86
-0.22,-9.51,2.62,9.86
-0.20,-9.50,2.59,9.85
-0.21,-9.50,2.62,9.86
-0.20,-9.50,2.64,9.86
-0.20,-9.48,2.63,9.84
-0.19,-9.50,2.65,9.86
-0.22,-9.50,2.66,9.87
-0.23,-9.45,2.67,9.82
-0.24,-9.46,2.64,9.83
-0.22,-9.48,2.64,9.84
-0.22,-9.48,2.64,9.84
-0.20,-9.47,2.66,9.84
-0.17,-9.49,2.70,9.87
-0.21,-9.54,2.72,9.92
-0.21,-9.54,2.75,9.93
-0.20,-9.48,2.72,9.86
-0.18,-9.45,2.66,9.82
-0.20,-9.42,2.63,9.78
-0.21,-9.43,2.63,9.79
-0.19,-9.42,2.65,9.79
-0.23,-9.44,2.68,9.82
-0.24,-9.45,2.70,9.83
-0.23,-9.47,2.76,9.86
-0.26,-9.50,2.73,9.89
-0.23,-9.51,2.66,9.88
-0.21,-9.49,2.68,9.86
-0.20,-9.51,2.66,9.87
-0.15,-9.51,2.68,9.88
-0.17,-9.50,2.70,9.88
-0.17,-9.49,2.75,9.88
-0.18,-9.51,2.78,9.91
-0.18,-9.53,2.77,9.92
-0.18,-9.49,2.77,9.89
-0.23,-9.45,2.78,9.85
-0.22,-9.45,2.76,9.85
-0.22,-9.40,2.73,9.79
-0.23,-9.39,2.71,9.78
-0.23,-9.41,2.69,9.79
-0.20,-9.39,2.70,9.78
-0.20,-9.41,2.71,9.79
-0.21,-9.43,2.71,9.82
-0.19,-9.46,2.75,9.85
-0.18,-9.45,2.78,9.85
-0.21,-9.46,2.80,9.86
-0.20,-9.47,2.79,9.88
-0.22,-9.44,2.83,9.86
-0.20,-9.42,2.83,9.84
-0.21,-9.49,2.82,9.90
-0.19,-9.46,2.79,9.86
-0.17,-9.43,2.80,9.84
-0.20,-9.46,2.77,9.87
-0.18,-9.47,2.80,9.88
-0.18,-9.49,2.83,9.90
-0.22,-9.45,2.83,9.87
-0.27,-9.43,2.84,9.85
-0.27,-9.43,2.84,9.85
-0.26,-9.45,2.80,9.86
-0.22,-9.45,2.80,9.86
-0.21,-9.42,2.80,9.83
-0.17,-9.43,2.82,9.84
-0.17,-9.42,2.79,9.83
-0.18,-9.42,2.78,9.83
-0.18,-9.41,2.82,9.82
-0.19,-9.43,2.84,9.85
-0.22,-9.42,2.82,9.84
-0.22,-9.44,2.85,9.86
-0.22,-9.43,2.81,9.84
-0.21,-9.43,2.81,9.85
-0.20,-9.43,2.82,9.85
-0.19,-9.45,2.84,9.87
-0.17,-9.44,2.86,9.87
-0.19,-9.45,2.89,9.89
-0.19,-9.45,2.89,9.88
-0.17,-9.43,2.90,9.87
-0.20,-9.41,2.92,9.86
-0.19,-9.43,2.92,9.88
-0.19,-9.40,2.90,9.84
-0.14,-9.38,2.87,9.81
-0.19,-9.39,2.87,9.82
-0.20,-9.39,2.89,9.83
-0.19,-9.38,2.91,9.82
-0.20,-9.40,2.92,9.84
-0.20,-9.40,2.91,9.84
-0.22,-9.39,2.91,9.83
-0.20,-9.41,2.91,9.86
-0.18,-9.42,2.91,9.86
-0.19,-9.47,2.94,9.92
-0.20,-9.45,2.94,9.90
-0.20,-9.46,2.93,9.90
-0.19,-9.42,2.93,9.87
-0.17,-9.45,2.95,9.90
-0.22,-9.43,2.95,9.88
-0.21,-9.41,2.98,9.88
-0.21,-9.40,2.95,9.85
-0.22,-9.37,2.95,9.83
-0.23,-9.37,2.96,9.83
-0.20,-9.35,2.98,9.82
-0.19,-9.37,2.98,9.83
-0.20,-9.35,2.95,9.81
-0.19,-9.34,2.95,9.80
-0.19,-9.38,2.96,9.84
-0.21,-9.39,2.95,9.84
-0.19,-9.39,2.97,9.85
-0.21,-9.39,2.97,9.85
-0.19,-9.39,3.00,9.86
-0.21,-9.44,3.01,9.91
-0.17,-9.47,3.04,9.95
-0.17,-9.49,3.06,9.97
-0.18,-9.47,3.09,9.96
-0.17,-9.38,3.07,9.87
-0.18,-9.34,3.06,9.83
-0.17,-9.34,2.98,9.81
-0.19,-9.29,2.95,9.75
-0.21,-9.29,2.97,9.76
-0.19,-9.32,2.98,9.79
-0.22,-9.37,3.01,9.84
-0.22,-9.38,3.04,9.86
-0.24,-9.42,3.06,9.90
-0.21,-9.43,3.00,9.90
-0.20,-9.44,2.97,9.90
-0.17,-9.43,2.97,9.89
-0.14,-9.42,3.02,9.89
-0.13,-9.40,3.00,9.87
-0.14,-9.38,3.06,9.87
-0.18,-9.39,3.11,9.89
-0.20,-9.37,3.10,9.87
-0.19,-9.39,3.09,9.88
-0.23,-9.37,3.08,9.87
-0.20,-9.36,3.05,9.84
-0.22,-9.31,2.98,9.78
-0.21,-9.31,2.97,9.77
-0.18,-9.33,2.98,9.79
-0.18,-9.32,2.98,9.79
-0.19,-9.35,2.99,9.82
-0.20,-9.37,3.03,9.85
-0.18,-9.36,3.06,9.85
-0.20,-9.38,3.08,9.87
-0.19,-9.37,3.08,9.86
-0.20,-9.37,3.10,9.88
-0.19,-9.37,3.12,9.88
-0.18,-9.37,3.10,9.87
-0.20,-9.36,3.12,9.87
-0.15,-9.34,3.10,9.85
-0.16,-9.38,3.07,9.87
-0.16,-9.35,3.10,9.85
-0.22,-9.38,3.11,9.88
-0.21,-9.37,3.10,9.88
-0.21,-9.35,3.12,9.86
-0.21,-9.35,3.11,9.85
-0.23,-9.37,3.09,9.87
-0.21,-9.35,3.09,9.84
-0.23,-9.33,3.06,9.82
-0.20,-9.33,3.08,9.83
-0.20,-9.34,3.07,9.83
-0.19,-9.33,3.08,9.82
-0.20,-9.34,3.09,9.84
-0.23,-9.36,3.11,9.86
-0.19,-9.38,3.09,9.88
-0.21,-9.34,3.11,9.85
-0.16,-9.37,3.09,9.87
-0.20,-9.36,3.09,9.86
-0.20,-9.38,3.09,9.88
-0.16,-9.39,3.13,9.90
-0.18,-9.37,3.11,9.88
-0.18,-9.38,3.15,9.90
-0.22,-9.36,3.15,9.88
-0.19,-9.35,3.16,9.87
-0.17,-9.33,3.15,9.85
-0.20,-9.33,3.13,9.84
-0.17,-9.33,3.14,9.84
-0.20,-9.29,3.14,9.81
-0.21,-9.30,3.16,9.83
-0.24,-9.30,3.15,9.83
-0.20,-9.30,3.14,9.82
-0.19,-9.31,3.17,9.84
-0.21,-9.31,3.15,9.83
-0.25,-9.65,3.22,10.18
-0.09,-9.06,3.15,9.59
-0.18,-9.35,3.18,9.88
-0.20,-9.35,3.18,9.88
-0.20,-9.33,3.17,9.86
-0.21,-9.35,3.20,9.89
-0.19,-9.34,3.17,9.86
-0.17,-9.35,3.16,9.87
-0.19,-9.35,3.16,9.87
-0.20,-9.36,3.18,9.89
-0.18,-9.34,3.19,9.87
-0.21,-9.31,3.16,9.83
-0.18,-9.33,3.16,9.85
-0.18,-9.33,3.17,9.86
-0.19,-9.31,3.16,9.84
-0.16,-9.36,3.20,9.90
-0.16,-9.37,3.21,9.90
-0.16,-9.39,3.23,9.93
-0.17,-9.38,3.27,9.93
-0.18,-9.34,3.29,9.90
-0.17,-9.27,3.24,9.83
-0.16,-9.28,3.18,9.81
-0.15,-9.25,3.16,9.78
-0.17,-9.23,3.15,9.76
-0.21,-9.25,3.17,9.78
-0.23,-9.28,3.17,9.81
-0.25,-9.30,3.23,9.85
-0.24,-9.36,3.23,9.90
-0.22,-9.39,3.23,9.93
-0.19,-9.40,3.19,9.92
-0.15,-9.41,3.17,9.93
-0.14,-9.38,3.17,9.90
-0.10,-9.35,3.18,9.87
-0.14,-9.35,3.23,9.89
-0.16,-9.31,3.24,9.86
-0.19,-9.35,3.26,9.91
-0.22,-9.33,3.27,9.89
-0.21,-9.32,3.26,9.87
-0.23,-9.29,3.22,9.83
-0.20,-9.29,3.18,9.82
-0.20,-9.26,3.14,9.78
-0.19,-9.25,3.14,9.77
-0.19,-9.28,3.14,9.80
-0.16,-9.30,3.16,9.82
-0.17,-9.33,3.20,9.87
-0.16,-9.32,3.18,9.85
-0.17,-9.32,3.22,9.86
-0.20,-9.30,3.20,9.84
-0.20,-9.32,3.21,9.86
-0.18,-9.32,3.23,9.87
-0.21,-9.31,3.25,9.86
-0.18,-9.31,3.22,9.85
-0.17,-9.27,3.25,9.83
-0.14,-9.32,3.22,9.87
-0.14,-9.32,3.23,9.86
-0.19,-9.34,3.25,9.89
-0.21,-9.33,3.25,9.88
-0.21,-9.36,3.25,9.91
-0.20,-9.38,3.23,9.92
-0.20,-9.32,3.20,9.85
-0.17,-9.30,3.18,9.83
-0.17,-9.25,3.15,9.77
-0.16,-9.27,3.13,9.78
-0.18,-9.28,3.15,9.80
-0.14,-9.28,3.15,9.80
-0.18,-9.31,3.17,9.83
-0.17,-9.33,3.19,9.86
-0.20,-9.34,3.22,9.88
-0.20,-9.37,3.21,9.90
-0.18,-9.32,3.21,9.86
-0.19,-9.35,3.19,9.88
-0.18,-9.32,3.19,9.85
-0.17,-9.33,3.19,9.87
-0.17,-9.34,3.20,9.87
-0.17,-9.34,3.23,9.89
-0.19,-9.37,3.21,9.91
-0.21,-9.33,3.20,9.87
-0.19,-9.31,3.20,9.85
-0.15,-9.32,3.21,9.86
-0.16,-9.30,3.18,9.83
-0.14,-9.28,3.19,9.82
-0.16,-9.28,3.18,9.82
-0.17,-9.28,3.18,9.82
