Ax,Ay,Az,Amag
-2.39,-1.14,-9.53,9.89
-2.39,-1.07,-9.51,9.86
-2.37,-1.02,-9.54,9.88
-2.41,-1.00,-9.55,9.90
-2.51,-1.06,-9.53,9.91
-2.47,-1.07,-9.53,9.90
-2.41,-1.11,-9.55,9.91
-2.42,-1.10,-9.52,9.88
-2.59,-1.06,-9.57,9.97
-2.62,-1.11,-9.55,9.97
-2.38,-1.20,-9.55,9.92
-2.44,-1.12,-9.55,9.92
-2.49,-1.15,-9.54,9.93
-2.44,-1.17,-9.50,9.87
-2.46,-1.06,-9.52,9.89
-2.52,-1.04,-9.54,9.92
-2.48,-1.09,-9.58,9.95
-2.46,-1.08,-9.48,9.86
-2.44,-1.06,-9.50,9.87
-2.43,-1.10,-9.54,9.91
-2.39,-1.17,-9.55,9.92
-2.43,-1.14,-9.54,9.92
-2.46,-1.10,-9.55,9.92
-2.48,-1.11,-9.51,9.89
-2.40,-1.09,-9.57,9.92
-2.38,-1.09,-9.51,9.86
-2.45,-1.13,-9.53,9.90
-2.51,-1.12,-9.57,9.96
-2.44,-1.08,-9.56,9.92
-2.39,-1.07,-9.51,9.87
-2.52,-1.11,-9.49,9.88
-2.47,-1.14,-9.57,9.95
-2.41,-1.09,-9.58,9.94
-2.46,-1.11,-9.52,9.90
-2.51,-1.12,-9.54,9.93
-2.51,-1.10,-9.55,9.93
-2.55,-1.12,-9.52,9.92
-2.43,-1.07,-9.53,9.89
-2.58,-1.07,-9.52,9.92
-2.46,-1.10,-9.56,9.93
-2.47,-1.13,-9.50,9.88
-2.43,-1.12,-9.53,9.90
-2.46,-1.12,-9.49,9.87
-2.47,-1.09,-9.57,9.94
-2.50,-1.10,-9.55,9.94
-2.50,-1.10,-9.57,9.95
-2.42,-1.08,-9.56,9.92
-2.42,-1.10,-9.52,9.88
-2.36,-1.05,-9.51,9.85
-2.52,-1.04,-9.52,9.90
-2.53,-1.07,-9.56,9.95
-2.56,-1.18,-9.54,9.95
-2.39,-1.16,-9.52,9.89
-2.52,-1.11,-9.52,9.91
-2.45,-1.13,-9.53,9.91
-2.43,-1.12,-9.55,9.92
-2.44,-1.17,-9.54,9.92
-2.46,-1.03,-9.56,9.93
-2.54,-1.07,-9.53,9.92
-2.34,-1.00,-9.53,9.86
-2.43,-1.14,-9.52,9.89
-2.44,-1.09,-9.57,9.93
-2.43,-1.04,-9.57,9.93
-2.48,-1.12,-9.52,9.91
-2.33,-1.15,-9.51,9.86
-2.48,-1.02,-9.52,9.89
-2.47,-1.09,-9.54,9.92
-2.43,-1.12,-9.53,9.90
-2.48,-1.13,-9.53,9.91
-2.53,-1.12,-9.53,9.92
-2.46,-1.14,-9.57,9.94
-2.49,-1.19,-9.51,9.90
-2.40,-1.09,-9.57,9.93
-2.45,-0.99,-9.54,9.90
-2.48,-1.06,-9.54,9.92
-2.44,-1.06,-9.54,9.90
-2.40,-1.11,-9.50,9.86
-2.48,-1.04,-9.49,9.86
-2.55,-1.05,-9.62,10.01
-2.55,-1.17,-9.54,9.94
-2.32,-1.14,-9.51,9.85
-2.39,-1.14,-9.55,9.91
-2.51,-1.12,-9.56,9.94
-2.52,-1.11,-9.50,9.89
-2.42,-1.09,-9.52,9.89
-2.47,-1.09,-9.51,9.89
-2.51,-1.09,-9.50,9.89
-2.44,-1.11,-9.55,9.92
-2.41,-1.03,-9.56,9.92
-2.47,-1.11,-9.53,9.91
-2.46,-1.14,-9.57,9.95
-2.49,-1.07,-9.49,9.87
-2.47,-1.07,-9.55,9.93
-2.50,-1.18,-9.56,9.95
-2.51,-1.12,-9.50,9.88
-2.43,-1.12,-9.54,9.90
-2.34,-1.09,-9.53,9.87
-2.45,-1.13,-9.56,9.94
-2.52,-1.14,-9.53,9.92
-2.40,-1.14,-9.53,9.89
-2.39,-1.04,-9.56,9.91
-2.45,-1.08,-9.56,9.92
-2.55,-1.10,-9.56,9.96
-2.48,-1.13,-9.51,9.90
-2.41,-1.13,-9.55,9.91
-2.42,-1.20,-9.53,9.90
-2.37,-1.13,-9.53,9.89
-2.38,-1.09,-9.52,9.87
-2.41,-1.12,-9.50,9.86
-2.43,-1.03,-9.54,9.90
-2.61,-0.77,-9.66,10.03
-2.33,-1.21,-9.54,9.90
-2.41,-1.09,-9.51,9.87
-2.35,-1.14,-9.53,9.88
-2.45,-1.12,-9.55,9.92
-2.44,-1.11,-9.54,9.91
-2.45,-1.06,-9.55,9.91
-2.46,-1.14,-9.52,9.90
-2.45,-1.09,-9.52,9.89
-2.40,-1.07,-9.55,9.90
-2.48,-1.04,-9.56,9.93
-2.51,-1.12,-9.55,9.94
-2.46,-1.09,-9.57,9.94
-2.48,-1.11,-9.52,9.90
-2.53,-1.10,-9.57,9.96
-2.41,-1.16,-9.54,9.91
-2.46,-1.10,-9.52,9.90
-2.47,-1.05,-9.52,9.89
-2.35,-1.12,-9.54,9.89
-2.48,-1.07,-9.56,9.94
-2.43,-1.05,-9.56,9.92
-2.46,-1.02,-9.56,9.92
-2.44,-1.04,-9.53,9.90
-2.45,-1.09,-9.53,9.90
-2.43,-1.14,-9.55,9.92
-2.46,-1.04,-9.55,9.91
-2.44,-1.12,-9.54,9.91
-2.47,-1.11,-9.52,9.89
-2.42,-1.07,-9.52,9.88
-2.39,-1.11,-9.55,9.91
-2.49,-1.09,-9.58,9.96
-2.39,-1.06,-9.52,9.88
-2.57,-1.04,-9.48,9.87
-2.41,-1.09,-9.57,9.93
-2.37,-1.01,-9.58,9.92
-2.44,-1.03,-9.55,9.91
-2.37,-1.12,-9.57,9.92
-2.45,-1.10,-9.55,9.92
-2.45,-1.00,-9.52,9.88
-2.48,-1.03,-9.52,9.89
-2.43,-1.12,-9.59,9.95
-2.47,-1.12,-9.54,9.91
-2.40,-1.04,-9.57,9.92
-2.42,-1.10,-9.54,9.91
-2.44,-1.05,-9.56,9.92
-2.44,-1.03,-9.59,9.95
-2.47,-1.06,-9.56,9.93
-2.44,-1.09,-9.53,9.90
-2.40,-1.04,-9.55,9.90
-2.48,-1.07,-9.52,9.90
-2.44,-1.03,-9.54,9.90
-2.40,-1.04,-9.54,9.89
-2.42,-1.08,-9.57,9.93
-2.50,-1.09,-9.53,9.91
-2.47,-1.07,-9.54,9.91
-2.43,-1.05,-9.58,9.94
-2.49,-1.05,-9.56,9.93
-2.51,-1.05,-9.55,9.93
-2.45,-1.04,-9.58,9.94
-2.37,-1.06,-9.54,9.89
-2.49,-1.08,-9.53,9.91
-2.42,-1.05,-9.57,9.93
-2.43,-1.00,-9.56,9.91
-2.44,-1.08,-9.52,9.88
-2.46,-1.12,-9.56,9.93
-2.42,-1.06,-9.57,9.92
-2.41,-0.98,-9.55,9.90
-2.40,-1.07,-9.57,9.93
-2.41,-1.11,-9.57,9.93
-2.47,-0.99,-9.56,9.93
-2.38,-1.05,-9.56,9.91
-2.39,-1.05,-9.49,9.84
-2.39,-1.02,-9.52,9.87
-2.46,-1.06,-9.57,9.94
-2.53,-1.05,-9.57,9.95
-2.42,-1.11,-9.55,9.91
-2.39,-1.06,-9.54,9.90
-2.41,-1.04,-9.56,9.91
-2.40,-1.10,-9.56,9.91
-2.44,-1.03,-9.60,9.96
-2.47,-1.03,-9.55,9.91
-2.47,-1.03,-9.52,9.89
-2.37,-1.06,-9.57,9.92
-2.43,-1.03,-9.55,9.91
-2.47,-1.08,-9.54,9.91
-2.36,-1.07,-9.55,9.90
-2.34,-1.03,-9.56,9.90
-2.46,-1.02,-9.52,9.89
-2.36,-1.02,-9.56,9.90
-2.43,-1.05,-9.56,9.92
-2.52,-1.05,-9.59,9.97
-2.44,-1.07,-9.55,9.92
-2.42,-1.08,-9.55,9.91
-2.44,-1.01,-9.57,9.92
-2.40,-1.08,-9.58,9.93
-2.43,-1.03,-9.57,9.92
-2.44,-1.05,-9.58,9.94
-2.41,-1.02,-9.54,9.90
-2.42,-1.03,-9.51,9.87
-2.41,-1.09,-9.57,9.93
-2.42,-1.05,-9.59,9.95
-2.38,-1.02,-9.58,9.92
-2.45,-1.01,-9.57,9.94
-2.45,-1.13,-9.58,9.95
-2.40,-1.08,-9.54,9.89
-2.38,-1.04,-9.57,9.91
-2.32,-1.08,-9.53,9.87
-2.47,-1.02,-9.56,9.93
-2.50,-1.02,-9.54,9.91
-2.36,-1.00,-9.56,9.89
-2.39,-1.06,-9.51,9.87
-2.39,-1.04,-9.59,9.94
-2.34,-1.06,-9.58,9.92
-2.34,-1.01,-9.57,9.90
-2.55,-1.00,-9.56,9.94
-2.53,-1.06,-9.54,9.93
-2.47,-1.09,-9.53,9.91
-2.42,-1.04,-9.57,9.92
-2.42,-1.09,-9.57,9.93
-2.48,-1.06,-9.56,9.93
-2.40,-1.05,-9.55,9.91
-2.28,-1.02,-9.54,9.86
-2.42,-1.03,-9.54,9.90
-2.52,-1.09,-9.49,9.88
-2.38,-0.98,-9.56,9.90
-2.51,-1.01,-9.55,9.93
-2.67,-1.09,-9.51,9.93
-2.40,-1.11,-9.55,9.91
-2.53,-1.06,-9.54,9.93
-2.55,-1.09,-9.57,9.96
-2.42,-1.12,-9.54,9.90
-2.38,-1.02,-9.46,9.81
-2.45,-1.03,-9.54,9.90
-2.43,-1.03,-9.63,9.98
-2.53,-1.03,-9.56,9.95
-2.52,-0.98,-9.60,9.98
-2.49,-1.20,-9.51,9.90
-2.49,-1.08,-9.52,9.90
-2.40,-1.06,-9.57,9.92
-2.45,-1.14,-9.52,9.90
-2.50,-1.07,-9.53,9.91
-2.48,-1.04,-9.55,9.92
-2.48,-1.00,-9.56,9.93
-2.44,-1.05,-9.51,9.88
-2.37,-1.12,-9.53,9.88
-2.44,-1.05,-9.53,9.89
-2.39,-1.05,-9.54,9.89
-2.47,-1.10,-9.58,9.95
-2.45,-1.03,-9.58,9.94
-2.52,-1.01,-9.55,9.93
-2.58,-1.11,-9.53,9.94
-2.47,-1.08,-9.59,9.96
-2.40,-1.04,-9.53,9.88
-2.46,-1.07,-9.56,9.93
-2.50,-1.12,-9.53,9.92
-2.53,-1.01,-9.53,9.91
-2.44,-1.06,-9.53,9.90
-2.48,-1.10,-9.52,9.89
-2.49,-1.02,-9.56,9.93
-2.50,-1.06,-9.52,9.90
-2.47,-1.07,-9.56,9.94
-2.48,-1.05,-9.53,9.90
-2.45,-1.06,-9.52,9.89
-2.49,-1.12,-9.54,9.92
-2.52,-1.07,-9.54,9.93
-2.56,-1.05,-9.48,9.87
-2.49,-1.11,-9.56,9.95
-2.54,-1.05,-9.51,9.90
-2.35,-1.06,-9.54,9.89
-2.47,-1.07,-9.52,9.89
-2.52,-1.00,-9.54,9.92
-2.67,-1.00,-9.52,9.94
-2.52,-1.06,-9.51,9.89
-2.46,-1.12,-9.50,9.87
-2.47,-1.10,-9.56,9.93
-2.53,-1.05,-9.57,9.95
-2.42,-1.06,-9.52,9.88
-2.57,-1.08,-9.53,9.93
-2.50,-1.06,-9.56,9.93
-2.51,-1.03,-9.52,9.89
-2.57,-1.04,-9.54,9.93
-2.67,-1.06,-9.50,9.93
-2.52,-1.08,-9.50,9.89
-2.39,-1.03,-9.53,9.88
-2.44,-1.03,-9.51,9.87
-2.47,-1.03,-9.56,9.93
-2.53,-1.05,-9.52,9.91
-2.51,-0.99,-9.54,9.92
-2.52,-1.06,-9.54,9.93
-2.52,-1.06,-9.58,9.96
-2.50,-1.08,-9.50,9.88
-2.48,-1.11,-9.49,9.87
-2.61,-1.06,-9.51,9.92
-2.53,-1.05,-9.57,9.95
-2.44,-1.00,-9.54,9.90
-2.38,-1.03,-9.56,9.90
-2.48,-1.05,-9.54,9.91
-2.46,-1.04,-9.55,9.92
-2.51,-1.00,-9.51,9.89
-2.47,-1.04,-9.53,9.90
-2.48,-1.03,-9.54,9.92
-2.50,-1.05,-9.54,9.92
-2.45,-1.07,-9.53,9.90
-2.46,-0.99,-9.52,9.89
-2.42,-1.06,-9.52,9.88
-2.56,-1.04,-9.57,9.96
-2.53,-0.99,-9.56,9.94
-2.52,-1.01,-9.53,9.91
-2.46,-1.13,-9.53,9.91
-2.40,-1.05,-9.54,9.90
-2.44,-0.95,-9.54,9.89
-2.50,-1.01,-9.54,9.92
-2.50,-1.04,-9.57,9.94
-2.52,-1.03,-9.54,9.92
-2.47,-1.03,-9.57,9.94
-2.47,-1.08,-9.52,9.90
-2.48,-1.06,-9.54,9.91
-2.46,-1.04,-9.54,9.91
-2.53,-1.06,-9.54,9.93
-2.50,-1.06,-9.58,9.96
-2.38,-1.09,-9.54,9.89
-2.46,-1.03,-9.49,9.85
-2.55,-1.00,-9.61,9.99
-2.58,-1.01,-9.55,9.94
-2.44,-1.01,-9.53,9.89
-2.40,-1.05,-9.55,9.90
-2.46,-1.06,-9.54,9.91
-2.53,-1.06,-9.52,9.91
-2.43,-1.05,-9.56,9.92
-2.50,-1.01,-9.57,9.94
-2.49,-1.02,-9.55,9.92
-2.49,-1.00,-9.54,9.91
-2.45,-1.05,-9.54,9.91
-2.49,-1.06,-9.55,9.93
-2.59,-1.03,-9.55,9.95
-2.55,-1.04,-9.54,9.93
-2.40,-1.04,-9.52,9.87
-2.43,-1.06,-9.55,9.91
-2.53,-1.01,-9.57,9.95
-2.41,-0.99,-9.57,9.92
-2.39,-0.99,-9.52,9.86
-2.41,-1.07,-9.54,9.90
-2.43,-0.99,-9.57,9.92
-2.42,-0.95,-9.60,9.94
-2.51,-1.02,-9.57,9.95
-2.59,-1.07,-9.53,9.94
-2.36,-1.02,-9.54,9.88
-2.40,-0.99,-9.54,9.89
-2.48,-1.06,-9.56,9.93
-2.44,-1.10,-9.59,9.96
-2.39,-0.96,-9.60,9.94
-2.55,-0.99,-9.50,9.88
-2.49,-1.03,-9.53,9.90
-2.46,-0.99,-9.58,9.94
-2.44,-1.01,-9.55,9.90
-2.38,-1.08,-9.57,9.92
-2.43,-1.02,-9.57,9.92
-2.42,-0.99,-9.58,9.93
-2.46,-0.94,-9.55,9.90
-2.50,-0.99,-9.55,9.92
-2.49,-1.02,-9.54,9.91
-2.45,-1.01,-9.54,9.90
-2.45,-0.97,-9.55,9.91
-2.48,-1.03,-9.60,9.97
-2.56,-1.01,-9.56,9.95
-2.55,-0.97,-9.54,9.92
-2.40,-1.10,-9.54,9.90
-2.40,-1.05,-9.57,9.92
-2.53,-1.01,-9.54,9.92
-2.48,-1.00,-9.58,9.95
-2.41,-1.02,-9.54,9.90
-2.42,-0.99,-9.56,9.91
-2.49,-0.99,-9.56,9.93
-2.51,-0.99,-9.53,9.91
-2.34,-0.97,-9.54,9.87
-2.53,-1.02,-9.54,9.92
-2.53,-1.02,-9.57,9.95
-2.47,-1.00,-9.56,9.92
-2.44,-1.02,-9.54,9.90
-2.50,-1.03,-9.58,9.95
-2.45,-1.07,-9.54,9.91
-2.54,-1.03,-9.49,9.87
-2.44,-0.98,-9.61,9.97
-2.56,-1.03,-9.55,9.94
-2.38,-1.00,-9.55,9.89
-2.39,-1.03,-9.54,9.89
-2.51,-0.98,-9.54,9.92
-2.55,-0.99,-9.53,9.91
-2.45,-1.01,-9.50,9.87
-2.46,-1.01,-9.52,9.88
-2.51,-1.03,-9.58,9.96
-2.48,-1.04,-9.54,9.91
-2.37,-1.03,-9.52,9.87
-2.52,-1.04,-9.54,9.92
-2.52,-1.03,-9.58,9.96
-2.50,-0.98,-9.56,9.93
-2.52,-0.97,-9.57,9.94
-2.50,-1.03,-9.55,9.92
-2.42,-1.00,-9.53,9.88
-2.44,-1.02,-9.54,9.90
-2.48,-1.00,-9.53,9.90
-2.50,-1.04,-9.57,9.94
-2.55,-0.99,-9.55,9.93
-2.47,-1.01,-9.54,9.91
-2.44,-0.98,-9.53,9.89
-2.50,-1.02,-9.56,9.93
-2.53,-1.02,-9.58,9.96
-2.48,-1.01,-9.53,9.90
-2.45,-0.95,-9.51,9.86
-2.42,-1.03,-9.59,9.94
-2.43,-1.02,-9.60,9.96
-2.49,-1.01,-9.53,9.90
-2.58,-0.89,-9.63,10.01
-2.47,-1.08,-9.55,9.92
-2.51,-1.01,-9.49,9.86
-2.32,-1.02,-9.54,9.87
-2.49,-1.03,-9.53,9.90
-2.50,-0.97,-9.58,9.94
-2.53,-0.94,-9.55,9.92
-2.48,-1.01,-9.54,9.91
-2.49,-1.03,-9.53,9.91
-2.47,-1.04,-9.54,9.91
-2.47,-1.01,-9.52,9.89
-2.38,-0.97,-9.57,9.91
-2.47,-1.02,-9.58,9.94
-2.49,-1.04,-9.56,9.93
-2.47,-1.00,-9.54,9.91
-2.46,-1.01,-9.55,9.91
-2.50,-1.00,-9.56,9.93
-2.48,-1.00,-9.54,9.91
-2.39,-0.96,-9.54,9.88
-2.49,-0.98,-9.54,9.91
-2.51,-1.06,-9.55,9.93
-2.45,-1.02,-9.60,9.95
-2.43,-0.98,-9.56,9.91
-2.52,-1.00,-9.55,9.93
-2.54,-1.03,-9.51,9.89
-2.45,-1.00,-9.56,9.92
-2.45,-1.03,-9.50,9.86
-2.45,-0.99,-9.59,9.95
-2.48,-1.02,-9.58,9.94
-2.49,-1.04,-9.53,9.90
-2.44,-0.96,-9.59,9.94
-2.42,-0.86,-9.65,9.98
-2.39,-1.08,-9.53,9.89
-2.50,-0.98,-9.52,9.89
-2.36,-1.06,-9.56,9.90
-2.43,-1.03,-9.55,9.91
-2.47,-0.93,-9.54,9.90
-2.50,-0.97,-9.55,9.92
-2.49,-0.98,-9.54,9.91
-2.53,-0.98,-9.54,9.92
-2.49,-1.08,-9.56,9.94
-2.31,-0.99,-9.58,9.90
-2.35,-0.92,-9.58,9.90
-2.48,-1.02,-9.57,9.94
-2.46,-0.97,-9.57,9.93
-2.47,-0.95,-9.54,9.90
-2.39,-1.01,-9.54,9.88
-2.46,-0.97,-9.57,9.93
-2.44,-0.95,-9.52,9.88
-2.48,-0.96,-9.55,9.92
-2.46,-0.99,-9.55,9.91
-2.46,-1.07,-9.55,9.92
-2.46,-0.99,-9.54,9.90
-2.50,-1.00,-9.58,9.96
-2.52,-1.05,-9.55,9.93
-2.50,-1.04,-9.58,9.96
-2.41,-1.00,-9.58,9.93
-2.45,-1.00,-9.55,9.91
-2.47,-0.99,-9.53,9.90
-2.44,-0.97,-9.56,9.92
-2.46,-0.95,-9.56,9.92
-2.50,-0.96,-9.54,9.91
-2.44,-0.98,-9.59,9.94
-2.46,-1.04,-9.47,9.84
-2.41,-0.91,-9.57,9.91
-2.48,-0.90,-9.66,10.02
-2.48,-1.05,-9.56,9.93
-2.38,-1.04,-9.58,9.92
-2.37,-1.07,-9.56,9.91
-2.40,-0.96,-9.57,9.91
-2.43,-0.99,-9.54,9.89
-2.48,-0.93,-9.56,9.92
-2.43,-0.98,-9.57,9.92
-2.44,-0.93,-9.56,9.91
-2.37,-0.98,-9.57,9.90
-2.39,-0.98,-9.57,9.92
-2.42,-0.98,-9.58,9.93
-2.45,-0.96,-9.61,9.97
-2.43,-0.96,-9.61,9.96
-2.48,-0.92,-9.56,9.92
-2.45,-1.00,-9.55,9.91
-2.39,-0.99,-9.56,9.91
-2.43,-0.98,-9.57,9.92
-2.41,-0.96,-9.55,9.90
-2.47,-1.01,-9.55,9.92
-2.47,-1.00,-9.58,9.95
-2.42,-0.99,-9.55,9.90
-2.36,-0.98,-9.54,9.88
-2.48,-0.95,-9.58,9.94
-2.43,-1.01,-9.57,9.93
-2.52,-1.00,-9.54,9.92
-2.41,-0.97,-9.57,9.92
-2.43,-0.98,-9.56,9.91
-2.45,-0.98,-9.57,9.92
-2.42,-0.99,-9.57,9.92
-2.45,-0.99,-9.58,9.94
-2.51,-0.95,-9.58,9.95
-2.36,-1.00,-9.58,9.91
-2.45,-0.96,-9.56,9.91
-2.42,-0.99,-9.58,9.93
-2.46,-0.99,-9.59,9.95
-2.54,-1.02,-9.51,9.90
-2.43,-1.03,-9.55,9.91
-2.49,-0.96,-9.61,9.97
-2.43,-0.97,-9.59,9.94
-2.32,-1.07,-9.51,9.85
-2.36,-0.95,-9.54,9.87
-2.47,-0.90,-9.56,9.91
-2.51,-0.96,-9.60,9.96
-2.35,-1.00,-9.56,9.90
-2.34,-1.03,-9.57,9.91
-2.30,-1.00,-9.58,9.91
-2.45,-0.95,-9.56,9.92
-2.50,-1.03,-9.60,9.98
-2.39,-1.04,-9.60,9.94
-2.43,-0.92,-9.54,9.89
-2.44,-0.96,-9.55,9.90
-2.41,-0.99,-9.57,9.91
-2.37,-0.89,-9.57,9.90
-2.50,-0.91,-9.59,9.95
-2.43,-0.97,-9.56,9.91
-2.43,-0.97,-9.55,9.90
-2.35,-0.98,-9.55,9.88
-2.44,-1.01,-9.54,9.90
-2.47,-0.94,-9.60,9.96
-2.45,-0.98,-9.55,9.91
-2.54,-1.00,-9.54,9.92
-2.45,-0.97,-9.56,9.92
-2.46,-0.94,-9.57,9.92
-2.36,-0.97,-9.54,9.88
-2.40,-0.95,-9.58,9.92
-2.49,-0.92,-9.60,9.96
-2.46,-1.00,-9.54,9.91
-2.40,-0.97,-9.55,9.89
-2.44,-0.96,-9.56,9.92
-2.43,-0.94,-9.57,9.92
-2.49,-0.99,-9.57,9.94
-2.44,-0.95,-9.57,9.92
-2.48,-0.94,-9.53,9.89
-2.40,-1.03,-9.57,9.92
-2.37,-0.93,-9.57,9.90
-2.46,-0.95,-9.55,9.91
-2.48,-0.97,-9.57,9.94
-2.45,-0.99,-9.56,9.92
-2.37,-0.94,-9.55,9.89
-2.41,-0.91,-9.60,9.94
-2.45,-1.00,-9.56,9.92
-2.46,-0.98,-9.56,9.92
-2.41,-0.94,-9.56,9.90
-2.45,-1.00,-9.57,9.93
-2.43,-0.97,-9.58,9.93
-2.40,-0.97,-9.56,9.91
-2.47,-0.97,-9.57,9.93
-2.51,-1.02,-9.56,9.93
-2.39,-1.00,-9.54,9.89
-2.33,-0.93,-9.54,9.87
-2.46,-0.93,-9.53,9.88
-2.43,-0.98,-9.58,9.93
-2.42,-0.97,-9.57,9.92
-2.50,-0.94,-9.56,9.92
-2.40,-0.94,-9.58,9.92
-2.44,-0.99,-9.56,9.92
-2.45,-0.95,-9.58,9.93
-2.44,-1.00,-9.54,9.89
-2.51,-0.95,-9.55,9.92
-2.49,-0.99,-9.53,9.90
-2.46,-0.99,-9.55,9.91
-2.35,-0.95,-9.58,9.91
-2.42,-0.90,-9.57,9.92
-2.50,-0.93,-9.55,9.92
-2.42,-1.04,-9.58,9.93
-2.45,-0.94,-9.52,9.88
-2.45,-0.88,-9.59,9.94
-2.50,-0.87,-9.61,9.97
-2.43,-1.05,-9.56,9.92
-2.45,-0.94,-9.55,9.91
-2.42,-1.01,-9.58,9.93
-2.40,-1.00,-9.55,9.90
-2.40,-0.91,-9.56,9.90
-2.46,-0.92,-9.54,9.90
-2.48,-0.93,-9.56,9.92
-2.46,-0.98,-9.56,9.92
-2.40,-0.95,-9.57,9.91
-2.45,-1.00,-9.55,9.91
-2.39,-1.00,-9.54,9.89
-2.46,-0.95,-9.56,9.92
-2.46,-0.95,-9.60,9.95
-2.45,-1.00,-9.57,9.92
-2.40,-0.96,-9.55,9.89
-2.39,-0.90,-9.56,9.90
-2.45,-0.95,-9.55,9.91
-2.42,-0.92,-9.57,9.92
-2.44,-0.95,-9.54,9.89
-2.45,-0.99,-9.55,9.91
-2.41,-0.98,-9.56,9.91
-2.44,-0.96,-9.59,9.94
-2.48,-1.05,-9.55,9.92
-2.44,-0.97,-9.56,9.91
-2.49,-0.93,-9.58,9.94
-2.45,-0.94,-9.58,9.93
-2.39,-0.96,-9.56,9.90
-2.42,-0.92,-9.57,9.92
-2.42,-0.96,-9.57,9.92
-2.38,-0.98,-9.57,9.91
-2.44,-0.91,-9.55,9.90
-2.52,-0.95,-9.55,9.92
-2.42,-1.03,-9.61,9.96
-2.41,-0.93,-9.50,9.85
-2.32,-0.95,-9.57,9.89
-2.51,-1.04,-9.56,9.94
-2.39,-0.96,-9.57,9.91
-2.52,-0.90,-9.54,9.91
-2.40,-0.93,-9.56,9.90
-2.47,-0.95,-9.56,9.92
-2.44,-0.95,-9.57,9.93
-2.43,-0.96,-9.58,9.93
-2.50,-0.98,-9.59,9.96
-2.42,-1.00,-9.56,9.92
-2.41,-0.94,-9.57,9.91
-2.48,-0.98,-9.53,9.90
-2.49,-1.05,-9.59,9.97
-2.36,-0.97,-9.56,9.90
-2.36,-0.95,-9.55,9.88
-2.49,-0.96,-9.55,9.92
-2.50,-1.00,-9.56,9.93
-2.45,-0.99,-9.58,9.94
-2.45,-0.92,-9.59,9.94
-2.42,-0.97,-9.56,9.91
-2.44,-1.03,-9.55,9.91
-2.39,-0.93,-9.56,9.90
-2.43,-0.99,-9.57,9.92
-2.43,-1.00,-9.57,9.92
-2.46,-0.96,-9.55,9.91
-2.46,-0.98,-9.57,9.93
-2.35,-1.01,-9.57,9.90
-2.46,-1.05,-9.53,9.90
-2.49,-1.00,-9.58,9.95
-2.42,-0.80,-9.69,10.02
-2.41,-0.94,-9.55,9.90
-2.36,-0.99,-9.55,9.89
-2.44,-0.98,-9.56,9.92
-2.39,-0.93,-9.56,9.89
-2.46,-0.98,-9.57,9.92
-2.46,-0.93,-9.54,9.89
-2.43,-1.00,-9.53,9.89
-2.47,-1.02,-9.56,9.92
-2.39,-0.96,-9.56,9.91
-2.41,-0.93,-9.55,9.90
-2.38,-0.99,-9.58,9.92
-2.38,-0.96,-9.58,9.92
-2.46,-0.94,-9.57,9.92
-2.43,-1.00,-9.58,9.93
-2.35,-1.00,-9.58,9.91
-2.36,-0.91,-9.56,9.89
-2.39,-0.95,-9.55,9.89
-2.37,-0.97,-9.59,9.92
-2.41,-0.95,-9.57,9.91
-2.42,-0.93,-9.60,9.94
-2.41,-0.99,-9.55,9.90
-2.41,-0.96,-9.54,9.88
-2.48,-0.95,-9.54,9.91
-2.39,-0.96,-9.60,9.94
-2.39,-0.96,-9.60,9.94
-2.39,-0.97,-9.54,9.88
-2.39,-0.95,-9.59,9.93
-2.39,-0.96,-9.58,9.92
-2.44,-0.98,-9.56,9.91
-2.40,-0.96,-9.55,9.89
-2.31,-0.96,-9.57,9.89
-2.46,-0.96,-9.58,9.94
-2.57,-1.01,-9.59,9.98
-2.32,-1.00,-9.60,9.93
-2.38,-0.90,-9.61,9.94
-2.37,-1.00,-9.58,9.92
-2.47,-0.95,-9.54,9.90
-2.34,-0.93,-9.54,9.86
-2.37,-0.93,-9.56,9.90
-2.41,-0.94,-9.57,9.92
-2.39,-0.93,-9.57,9.91
-2.36,-0.95,-9.58,9.91
-2.32,-0.99,-9.60,9.93
-2.36,-1.00,-9.60,9.94
-2.40,-0.95,-9.56,9.90
-2.38,-0.93,-9.59,9.93
-2.36,-0.99,-9.58,9.91
-2.39,-0.99,-9.61,9.95
-2.31,-1.02,-9.56,9.89
-2.37,-0.94,-9.58,9.91
-2.40,-0.91,-9.61,9.95
-2.34,-0.97,-9.58,9.91
-2.32,-0.94,-9.59,9.91
-2.38,-0.95,-9.59,9.92
-2.35,-0.94,-9.57,9.90
-2.32,-0.94,-9.59,9.91
-2.31,-0.97,-9.58,9.91
-2.33,-0.98,-9.55,9.88
-2.38,-1.06,-9.61,9.95
-2.43,-0.98,-9.62,9.97
-2.32,-0.94,-9.61,9.93
-2.34,-0.97,-9.56,9.89
-2.36,-0.96,-9.58,9.91
-2.30,-0.96,-9.56,9.88
-2.36,-0.97,-9.60,9.94
-2.34,-0.93,-9.62,9.94
-2.36,-0.94,-9.58,9.91
-2.43,-0.93,-9.56,9.91
-2.25,-0.96,-9.66,9.96
-2.37,-0.98,-9.62,9.96
-2.33,-0.95,-9.60,9.92
-2.36,-1.03,-9.57,9.91
-2.31,-0.95,-9.55,9.87
-2.40,-0.95,-9.60,9.94
-2.31,-0.91,-9.59,9.91
-2.37,-0.97,-9.58,9.91
-2.36,-0.98,-9.57,9.91
-2.40,-0.92,-9.57,9.91
-2.27,-1.01,-9.60,9.92
-2.25,-0.98,-9.61,9.92
-2.32,-0.89,-9.63,9.95
-2.41,-0.89,-9.58,9.92
-2.38,-0.96,-9.57,9.91
-2.22,-0.97,-9.61,9.91
-2.34,-0.96,-9.57,9.89
-2.32,-0.95,-9.60,9.93
-2.30,-0.95,-9.59,9.91
-2.29,-0.97,-9.60,9.91
-2.35,-0.94,-9.62,9.95
-2.28,-0.95,-9.59,9.91
-2.36,-0.96,-9.60,9.93
-2.31,-1.02,-9.58,9.91
-2.39,-0.92,-9.60,9.94
-2.34,-0.95,-9.56,9.89
-2.32,-0.97,-9.56,9.89
-2.27,-0.93,-9.59,9.90
-2.28,-0.95,-9.58,9.89
-2.37,-0.96,-9.61,9.95
-2.38,-0.97,-9.58,9.92
-2.29,-0.96,-9.59,9.90
-2.28,-0.96,-9.60,9.91
-2.40,-1.05,-9.60,9.95
-2.23,-1.00,-9.59,9.90
-2.39,-0.97,-9.56,9.91
-2.25,-0.99,-9.64,9.95
-2.34,-0.92,-9.60,9.93
-2.34,-0.95,-9.64,9.96
-2.23,-0.96,-9.55,9.86
-2.30,-0.94,-9.56,9.87
-2.32,-0.94,-9.61,9.93
-2.33,-0.97,-9.60,9.92
-2.28,-0.97,-9.63,9.94
-2.28,-1.01,-9.60,9.92
-2.24,-0.98,-9.54,9.85
-2.37,-0.96,-9.59,9.92
-2.36,-0.99,-9.62,9.96
-2.32,-0.96,-9.60,9.92
-2.32,-0.97,-9.54,9.87
-2.30,-0.91,-9.59,9.91
-2.33,-0.99,-9.59,9.92
-2.36,-0.93,-9.63,9.96
-2.31,-0.94,-9.60,9.92
-2.31,-0.95,-9.58,9.90
-2.24,-0.96,-9.56,9.87
-2.36,-0.97,-9.61,9.95
-2.39,-0.92,-9.59,9.93
-2.33,-0.95,-9.63,9.95
-2.25,-1.01,-9.60,9.91
-2.33,-0.98,-9.59,9.92
-2.35,-0.93,-9.59,9.92
-2.31,-0.97,-9.62,9.94
-2.26,-0.96,-9.57,9.89
-2.34,-0.93,-9.59,9.92
-2.29,-0.95,-9.59,9.90
-2.35,-0.95,-9.60,9.93
-2.32,-0.94,-9.56,9.89
-2.32,-1.03,-9.54,9.87
-2.34,-0.94,-9.59,9.92
-2.31,-0.88,-9.74,10.04
-2.30,-0.96,-9.59,9.90
-2.30,-0.96,-9.56,9.88
-2.39,-1.06,-9.58,9.93
-2.23,-0.96,-9.59,9.90
-2.35,-0.91,-9.58,9.90
-2.34,-0.92,-9.57,9.90
-2.38,-0.94,-9.60,9.93
-2.32,-0.96,-9.60,9.93
-2.30,-0.94,-9.60,9.92
-2.29,-0.98,-9.60,9.92
-2.37,-0.98,-9.60,9.93
-2.37,-0.94,-9.58,9.91
-2.38,-0.90,-9.61,9.94
-2.33,-0.98,-9.62,9.95
-2.24,-1.00,-9.57,9.88
-2.39,-0.92,-9.58,9.92
-2.29,-0.95,-9.59,9.91
-2.29,-0.95,-9.60,9.92
-2.34,-0.98,-9.57,9.90
-2.39,-0.98,-9.61,9.95
-2.28,-0.97,-9.61,9.92
-2.37,-0.96,-9.57,9.90
-2.28,-0.96,-9.60,9.92
-2.32,-0.95,-9.59,9.91
-2.37,-0.94,-9.58,9.92
-2.37,-0.97,-9.58,9.92
-2.28,-0.96,-9.57,9.89
-2.30,-0.96,-9.59,9.91
-2.35,-1.00,-9.59,9.93
-2.29,-0.99,-9.62,9.94
-2.34,-0.92,-9.62,9.95
-2.33,-0.87,-9.70,10.01
-2.36,-1.01,-9.59,9.93
-2.29,-0.94,-9.62,9.93
-2.25,-1.04,-9.59,9.91
-2.36,-0.97,-9.59,9.92
-2.36,-0.89,-9.58,9.90
-2.35,-0.92,-9.56,9.88
-2.31,-1.00,-9.53,9.86
-2.28,-0.98,-9.63,9.94
-2.29,-0.97,-9.62,9.94
-2.27,-0.92,-9.56,9.87
-2.32,-0.90,-9.61,9.93
-2.42,-0.96,-9.61,9.96
-2.37,-0.99,-9.59,9.93
-2.36,-0.96,-9.62,9.95
-2.37,-1.02,-9.59,9.93
-2.33,-0.93,-9.57,9.90
-2.29,-0.95,-9.58,9.90
-2.27,-0.92,-9.61,9.92
-2.40,-0.97,-9.61,9.95
-2.36,-0.93,-9.60,9.93
-2.33,-0.96,-9.58,9.90
-2.32,-0.91,-9.57,9.89
-2.35,-0.95,-9.60,9.93
-2.28,-0.95,-9.61,9.92
-2.33,-0.89,-9.60,9.92
-2.36,-0.93,-9.60,9.93
-2.40,-1.00,-9.58,9.93
-2.29,-1.02,-9.57,9.89
-2.34,-1.02,-9.53,9.87
-2.34,-0.95,-9.59,9.91
-2.35,-0.89,-9.69,10.01
-2.31,-0.97,-9.60,9.92
-2.26,-0.91,-9.60,9.90
-2.31,-0.98,-9.59,9.91
-2.33,-0.91,-9.56,9.88
-2.40,-0.95,-9.59,9.93
-2.39,-0.93,-9.59,9.92
-2.33,-0.94,-9.55,9.87
-2.31,-0.98,-9.59,9.91
-2.29,-0.99,-9.61,9.93
-2.30,-0.96,-9.57,9.89
-2.29,-0.98,-9.61,9.93
-2.40,-0.98,-9.64,9.98
-2.31,-0.89,-9.60,9.92
-2.33,-0.95,-9.57,9.90
-2.33,-1.02,-9.57,9.91
-2.35,-0.91,-9.58,9.91
-2.37,-0.89,-9.60,9.93
-2.33,-0.94,-9.60,9.92
-2.28,-0.98,-9.59,9.91
-2.30,-0.93,-9.56,9.87
-2.27,-0.93,-9.62,9.92
-2.37,-0.95,-9.59,9.92
-2.37,-0.97,-9.59,9.93
-2.42,-0.98,-9.61,9.95
-2.33,-0.99,-9.57,9.90
-2.27,-0.96,-9.61,9.92
-2.35,-0.94,-9.59,9.92
-2.36,-0.95,-9.58,9.91
-2.34,-0.95,-9.60,9.93
-2.32,-0.93,-9.62,9.93
-2.27,-0.90,-9.60,9.91
-2.37,-0.95,-9.57,9.90
-2.34,-1.03,-9.61,9.95
-2.31,-0.90,-9.62,9.93
-2.27,-0.89,-9.59,9.90
-2.26,-0.97,-9.59,9.90
-2.32,-0.92,-9.56,9.88
-2.39,-0.89,-9.58,9.92
-2.35,-0.94,-9.59,9.92
-2.32,-0.96,-9.59,9.92
-2.21,-0.97,-9.60,9.90
-2.30,-0.93,-9.60,9.91
-2.31,-0.97,-9.63,9.95
-2.34,-1.00,-9.58,9.91
-2.30,-0.90,-9.61,9.93
-2.32,-0.91,-9.61,9.93
-2.32,-0.94,-9.62,9.94
-2.28,-0.95,-9.60,9.91
-2.33,-0.90,-9.62,9.94
-2.36,-0.97,-9.61,9.94
-2.29,-0.93,-9.61,9.92
-2.26,-0.94,-9.62,9.92
-2.28,-0.94,-9.59,9.90
-2.34,-0.91,-9.61,9.93
-2.33,-0.92,-9.60,9.92
-2.28,-0.99,-9.57,9.89
-2.32,-0.92,-9.61,9.92
-2.31,-0.93,-9.63,9.94
-2.32,-0.92,-9.58,9.91
-2.24,-0.95,-9.58,9.89
-2.31,-0.94,-9.60,9.92
-2.28,-0.97,-9.61,9.92
-2.24,-0.95,-9.62,9.92
-2.26,-0.91,-9.60,9.91
-2.39,-0.92,-9.56,9.90
-2.27,-1.01,-9.55,9.87
-2.27,-0.88,-9.65,9.95
-2.34,-0.92,-9.64,9.96
-2.34,-1.00,-9.63,9.96
-2.25,-0.97,-9.60,9.90
-2.21,-0.99,-9.61,9.91
-2.24,-0.96,-9.61,9.92
-2.32,-0.91,-9.58,9.90
-2.30,-0.90,-9.61,9.92
-2.28,-0.90,-9.63,9.94
-2.29,-0.96,-9.59,9.91
-2.29,-0.95,-9.60,9.92
-2.19,-0.93,-9.60,9.89
-2.22,-0.90,-9.62,9.91
-2.29,-0.90,-9.61,9.92
-2.29,-0.95,-9.62,9.93
-2.27,-0.98,-9.61,9.93
-2.26,-0.93,-9.60,9.91
-2.32,-0.93,-9.58,9.90
-2.19,-0.93,-9.60,9.89
-2.24,-0.88,-9.61,9.90
-2.30,-0.93,-9.63,9.94
-2.31,-0.96,-9.62,9.94
-2.26,-0.92,-9.60,9.90
-2.22,-0.94,-9.58,9.88
-2.28,-0.94,-9.63,9.94
-2.30,-0.93,-9.63,9.94
-2.29,-0.95,-9.60,9.91
-2.26,-0.92,-9.55,9.86
-2.27,-0.91,-9.62,9.93
-2.28,-0.96,-9.60,9.92
-2.26,-0.98,-9.60,9.91
-2.28,-0.87,-9.62,9.92
-2.31,-0.97,-9.61,9.93
-2.32,-0.95,-9.58,9.90
-2.24,-0.98,-9.63,9.94
-2.28,-1.03,-9.57,9.89
-2.29,-0.92,-9.65,9.96
-2.26,-0.90,-9.66,9.96
-2.32,-0.94,-9.60,9.92
-2.24,-0.97,-9.63,9.94
-2.24,-1.00,-9.62,9.93
-2.30,-0.95,-9.59,9.91
-2.26,-0.91,-9.59,9.89
-2.31,-0.90,-9.59,9.91
-2.27,-0.93,-9.58,9.89
-2.30,-0.95,-9.61,9.93
-2.32,-0.96,-9.62,9.94
-2.28,-0.98,-9.60,9.92
-2.19,-0.91,-9.65,9.94
-2.30,-0.94,-9.64,9.96
-2.43,-0.96,-9.59,9.94
-2.32,-0.98,-9.59,9.92
-2.24,-0.96,-9.62,9.92
-2.24,-0.97,-9.60,9.90
-2.34,-0.95,-9.60,9.92
-2.27,-0.94,-9.59,9.90
-2.29,-0.95,-9.58,9.89
-2.28,-0.95,-9.60,9.92
-2.28,-0.96,-9.63,9.94
-2.42,-0.95,-9.57,9.92
-2.30,-0.98,-9.61,9.93
-2.27,-0.96,-9.64,9.95
-2.27,-0.99,-9.60,9.91
-2.37,-0.97,-9.59,9.92
-2.30,-0.95,-9.62,9.94
-2.27,-0.97,-9.62,9.93
-2.27,-0.99,-9.58,9.90
-2.31,-0.93,-9.60,9.92
-2.25,-0.97,-9.63,9.94
-2.28,-1.02,-9.57,9.89
-2.38,-0.95,-9.59,9.93
-2.36,-0.85,-9.70,10.02
-2.28,-1.02,-9.60,9.92
-2.19,-0.98,-9.58,9.87
-2.17,-1.03,-9.57,9.87
-2.34,-0.93,-9.61,9.94
-2.29,-0.94,-9.64,9.95
-2.39,-0.94,-9.60,9.93
-2.30,-0.92,-9.59,9.90
-2.20,-1.03,-9.58,9.88
-2.30,-0.99,-9.58,9.90
-2.31,-0.96,-9.60,9.92
-2.26,-0.93,-9.61,9.92
-2.24,-0.96,-9.63,9.93
-2.33,-0.97,-9.62,9.94
-2.32,-0.95,-9.59,9.92
-2.27,-0.94,-9.63,9.94
-2.29,-0.94,-9.62,9.94
-2.32,-0.96,-9.59,9.91
-2.24,-0.94,-9.60,9.90
-2.30,-1.01,-9.58,9.91
-2.31,-0.96,-9.63,9.95
-2.29,-0.96,-9.61,9.92
-2.26,-0.98,-9.61,9.92
-2.34,-0.95,-9.61,9.93
-2.34,-0.95,-9.59,9.92
-2.26,-0.99,-9.60,9.91
-2.25,-0.92,-9.64,9.94
-2.24,-1.02,-9.61,9.92
-2.32,-0.96,-9.59,9.92
-2.17,-1.03,-9.58,9.88
-2.31,-0.98,-9.61,9.93
-2.29,-0.98,-9.60,9.92
-2.38,-0.91,-9.58,9.91
-2.25,-0.96,-9.66,9.97
-2.21,-0.92,-9.58,9.87
-2.21,-0.89,-9.59,9.88
-2.34,-0.97,-9.63,9.96
-2.32,-0.91,-9.60,9.92
-2.26,-0.88,-9.57,9.88
-2.34,-0.95,-9.56,9.89
-2.37,-0.99,-9.60,9.94
-2.29,-0.99,-9.64,9.96
-2.24,-0.95,-9.62,9.92
-2.30,-0.92,-9.61,9.92
-2.38,-0.92,-9.60,9.93
-2.22,-0.93,-9.61,9.91
-2.31,-0.93,-9.58,9.90
-2.36,-0.94,-9.60,9.93
-2.29,-0.97,-9.64,9.96
-2.24,-0.88,-9.63,9.93
-2.23,-0.97,-9.55,9.85
-2.32,-1.00,-9.62,9.94
-2.18,-0.93,-9.66,9.95
-2.32,-0.96,-9.60,9.92
-2.20,-0.91,-9.61,9.90
-2.25,-0.94,-9.61,9.91
-2.33,-0.94,-9.59,9.91
-2.33,-0.91,-9.61,9.93
-2.28,-0.89,-9.60,9.91
-2.21,-1.00,-9.56,9.87
