Ax,Ay,Az,Amag
0.37,0.65,-9.97,10.00
0.43,0.60,-9.98,10.00
0.46,0.66,-9.99,10.03
0.35,0.55,-9.95,9.97
0.42,0.62,-9.92,9.95
0.31,0.60,-9.90,9.93
0.41,0.67,-9.87,9.90
0.39,0.66,-9.91,9.93
0.37,0.63,-9.98,10.01
0.37,0.68,-9.92,9.95
0.36,0.65,-9.91,9.93
0.37,0.53,-9.95,9.97
0.38,0.57,-9.90,9.92
0.45,0.71,-9.91,9.95
0.39,0.64,-9.91,9.93
0.39,0.50,-9.95,9.97
0.41,0.61,-9.92,9.95
0.36,0.61,-9.90,9.93
0.38,0.60,-9.92,9.95
0.38,0.57,-9.91,9.94
0.43,0.68,-9.96,9.99
0.29,0.56,-9.95,9.97
0.49,0.55,-9.85,9.88
0.35,0.78,-10.02,10.06
0.50,0.52,-9.88,9.91
0.30,0.54,-9.80,9.82
0.37,0.58,-9.98,10.00
0.50,0.56,-9.99,10.02
0.51,0.65,-9.92,9.95
0.40,0.54,-9.89,9.91
0.28,0.53,-9.93,9.94
0.34,0.57,-9.93,9.96
0.42,0.64,-9.93,9.96
0.40,0.61,-9.94,9.97
0.36,0.49,-9.91,9.93
0.39,0.59,-9.93,9.96
0.48,0.64,-9.99,10.03
0.47,0.58,-9.88,9.91
0.29,0.60,-9.91,9.93
0.36,0.54,-9.96,9.98
0.44,0.62,-9.95,9.98
0.50,0.70,-9.97,10.01
0.48,0.71,-9.90,9.94
0.29,0.55,-9.88,9.90
0.33,0.53,-9.88,9.90
0.48,0.67,-9.93,9.96
0.40,0.63,-9.90,9.93
0.35,0.55,-9.91,9.93
0.50,0.67,-9.94,9.98
0.38,0.50,-9.92,9.94
0.41,0.62,-9.92,9.94
0.33,0.54,-9.92,9.94
0.46,0.57,-9.93,9.96
0.44,0.61,-9.94,9.96
0.39,0.55,-9.90,9.93
0.40,0.60,-9.94,9.96
0.41,0.57,-9.89,9.91
0.35,0.59,-9.95,9.97
0.48,0.63,-9.95,9.98
0.46,0.55,-9.89,9.91
0.19,0.72,-10.06,10.09
0.51,0.49,-9.91,9.93
0.46,0.56,-9.88,9.90
0.35,0.56,-9.97,9.99
0.44,0.60,-10.02,10.05
0.53,0.67,-9.94,9.98
0.43,0.61,-9.89,9.91
0.36,0.61,-9.89,9.92
0.38,0.62,-9.89,9.91
0.42,0.56,-9.95,9.97
0.46,0.60,-9.92,9.95
0.43,0.55,-9.93,9.95
0.43,0.65,-9.91,9.94
0.49,0.58,-9.99,10.02
0.54,0.42,-9.91,9.94
0.46,0.59,-9.95,9.98
0.39,0.56,-9.93,9.95
0.46,0.68,-9.92,9.96
0.34,0.59,-9.96,9.98
0.38,0.52,-9.95,9.97
0.43,0.69,-9.93,9.96
0.41,0.62,-9.91,9.94
0.42,0.48,-9.92,9.95
0.47,0.63,-9.93,9.96
0.38,0.57,-9.96,9.99
0.32,0.60,-9.92,9.94
0.41,0.61,-9.85,9.88
0.40,0.50,-9.94,9.96
0.43,0.48,-9.95,9.97
0.40,0.59,-9.98,10.00
0.34,0.63,-9.90,9.93
0.36,0.55,-9.91,9.93
0.44,0.47,-9.96,9.98
0.31,0.55,-9.92,9.94
0.21,0.57,-9.95,9.97
0.35,0.54,-9.89,9.91
0.45,0.36,-9.68,9.70
0.33,0.49,-10.01,10.03
0.47,0.50,-9.94,9.96
0.21,0.52,-9.88,9.89
0.16,0.48,-10.01,10.02
0.50,0.53,-9.97,10.00
0.45,0.54,-9.93,9.95
0.20,0.49,-9.91,9.93
0.36,0.53,-9.94,9.96
0.35,0.64,-9.97,10.00
0.36,0.56,-9.94,9.96
0.39,0.50,-9.92,9.94
0.40,0.59,-9.92,9.95
0.32,0.58,-9.93,9.95
0.39,0.58,-9.87,9.89
0.37,0.48,-9.83,9.85
0.40,0.49,-9.99,10.01
0.45,0.56,-9.99,10.02
0.30,0.59,-9.89,9.91
0.40,0.62,-9.94,9.97
0.44,0.42,-9.93,9.95
0.37,0.54,-9.91,9.93
0.28,0.63,-9.93,9.96
0.39,0.59,-9.96,9.99
0.36,0.57,-9.93,9.95
0.29,0.63,-9.89,9.92
0.29,0.55,-9.88,9.90
0.50,0.58,-9.97,10.00
0.37,0.59,-9.93,9.96
0.30,0.70,-9.89,9.92
0.27,0.62,-9.89,9.91
0.42,0.50,-9.92,9.94
0.44,0.52,-9.96,9.99
0.42,0.64,-9.97,10.00
0.39,0.56,-9.85,9.87
0.21,0.70,-10.01,10.04
0.42,0.57,-9.96,9.98
0.36,0.53,-9.79,9.81
0.30,0.58,-9.96,9.98
0.53,0.64,-10.01,10.04
0.40,0.49,-9.96,9.98
0.39,0.65,-9.88,9.91
0.32,0.65,-9.92,9.94
0.29,0.58,-9.94,9.97
0.35,0.43,-9.94,9.95
0.38,0.62,-9.94,9.96
0.36,0.62,-9.94,9.96
0.41,0.57,-9.91,9.93
0.31,0.45,-9.94,9.96
0.42,0.59,-9.88,9.91
0.21,0.65,-9.94,9.97
0.34,0.66,-10.00,10.03
0.41,0.57,-9.95,9.97
0.25,0.56,-9.92,9.94
0.41,0.61,-9.89,9.92
0.40,0.60,-9.85,9.88
0.30,0.62,-9.93,9.96
0.38,0.64,-9.94,9.97
0.30,0.69,-9.89,9.92
0.28,0.60,-9.92,9.94
0.38,0.52,-9.95,9.97
0.37,0.51,-9.91,9.94
0.40,0.59,-9.95,9.98
0.36,0.57,-9.91,9.94
0.31,0.63,-9.91,9.93
0.22,0.55,-9.95,9.97
0.39,0.63,-9.88,9.90
0.44,0.51,-9.87,9.89
0.28,0.53,-9.99,10.01
0.44,0.65,-9.83,9.86
0.27,0.63,-9.86,9.89
0.21,0.59,-9.97,9.99
0.45,0.66,-9.98,10.01
0.37,0.59,-9.91,9.94
0.22,0.56,-9.92,9.94
0.32,0.60,-9.96,9.98
0.29,0.59,-9.96,9.98
0.24,0.55,-9.88,9.90
0.28,0.53,-9.89,9.91
0.37,0.62,-9.95,9.98
0.27,0.60,-10.03,10.05
0.33,0.48,-9.92,9.94
0.31,0.65,-9.94,9.97
0.33,0.72,-10.00,10.03
0.31,0.40,-9.95,9.97
0.35,0.48,-9.94,9.96
0.29,0.67,-9.96,9.98
0.27,0.58,-9.79,9.81
0.32,0.69,-9.87,9.90
0.29,0.63,-9.95,9.97
0.11,0.49,-9.93,9.94
0.37,0.64,-9.93,9.96
0.37,0.60,-9.96,9.99
0.36,0.56,-9.94,9.96
0.27,0.58,-9.89,9.91
0.21,0.59,-9.91,9.93
0.36,0.67,-9.97,10.00
0.30,0.50,-9.87,9.89
0.30,0.46,-9.85,9.87
0.42,0.61,-10.07,10.10
0.34,0.54,-9.85,9.87
0.27,0.61,-9.89,9.92
0.36,0.67,-10.00,10.03
0.50,0.68,-9.98,10.01
0.26,0.54,-9.88,9.90
0.18,0.62,-9.90,9.92
0.31,0.64,-9.92,9.95
0.27,0.61,-9.93,9.96
0.36,0.61,-9.92,9.95
0.34,0.55,-9.91,9.93
0.24,0.62,-9.93,9.95
0.33,0.71,-10.01,10.04
0.47,0.56,-9.94,9.97
0.22,0.55,-9.95,9.96
0.28,0.69,-9.99,10.02
0.37,0.64,-9.97,10.00
0.36,0.69,-9.90,9.93
0.29,0.69,-9.93,9.96
0.30,0.54,-9.85,9.87
0.29,0.66,-9.87,9.89
0.30,0.69,-9.94,9.97
0.33,0.59,-9.90,9.92
0.31,0.65,-9.88,9.91
0.33,0.62,-9.94,9.96
0.42,0.63,-9.97,9.99
0.39,0.64,-9.96,9.99
0.25,0.54,-9.95,9.97
0.35,0.67,-9.93,9.96
0.36,0.65,-9.87,9.90
0.37,0.70,-9.97,10.00
0.45,0.63,-9.91,9.94
0.34,0.66,-9.81,9.84
0.25,0.64,-9.96,9.98
0.49,0.63,-9.87,9.90
0.30,0.70,-9.83,9.86
0.34,0.69,-9.98,10.01
0.42,0.54,-10.01,10.04
0.44,0.74,-9.97,10.01
0.42,0.69,-9.90,9.93
0.34,0.64,-9.92,9.94
0.41,0.61,-9.95,9.98
0.39,0.66,-9.92,9.95
0.33,0.64,-9.92,9.95
0.43,0.65,-9.94,9.97
0.49,0.62,-9.95,9.98
0.44,0.58,-9.91,9.93
0.34,0.67,-9.92,9.94
0.34,0.69,-9.96,9.99
0.43,0.64,-9.96,9.99
0.41,0.65,-9.91,9.94
0.33,0.70,-9.95,9.98
0.43,0.72,-9.92,9.95
0.45,0.57,-9.88,9.91
0.39,0.61,-9.91,9.93
0.30,0.62,-9.92,9.94
0.42,0.70,-9.93,9.96
0.48,0.65,-9.94,9.98
0.46,0.63,-9.88,9.91
0.37,0.64,-9.90,9.93
0.43,0.69,-9.94,9.97
0.33,0.64,-9.94,9.96
0.40,0.59,-9.90,9.92
0.37,0.58,-9.95,9.97
0.44,0.70,-9.96,9.99
0.38,0.67,-9.88,9.91
0.40,0.58,-9.90,9.93
0.41,0.66,-9.94,9.97
0.41,0.69,-9.91,9.94
0.37,0.65,-9.94,9.96
0.47,0.63,-9.93,9.96
0.44,0.57,-9.82,9.85
0.23,0.67,-10.08,10.10
0.56,0.54,-9.84,9.87
0.36,0.65,-9.81,9.84
0.39,0.73,-9.98,10.01
0.45,0.61,-9.98,10.00
0.45,0.56,-9.93,9.95
0.38,0.75,-9.90,9.93
0.40,0.76,-9.91,9.94
0.36,0.62,-9.93,9.95
0.37,0.51,-9.93,9.95
0.37,0.65,-9.92,9.95
0.42,0.69,-9.92,9.96
0.40,0.59,-9.93,9.95
0.44,0.63,-9.95,9.98
0.48,0.62,-9.88,9.92
0.42,0.68,-9.96,10.00
0.39,0.60,-9.94,9.97
0.36,0.69,-9.94,9.97
0.50,0.72,-9.93,9.97
0.44,0.67,-9.93,9.96
0.34,0.60,-9.90,9.93
0.34,0.74,-9.88,9.92
0.50,0.70,-9.93,9.97
0.45,0.51,-9.90,9.92
0.43,0.69,-9.90,9.93
0.42,0.68,-9.95,9.99
0.37,0.60,-9.93,9.95
0.45,0.64,-9.95,9.98
0.39,0.61,-9.92,9.95
0.37,0.66,-9.93,9.96
0.44,0.69,-9.94,9.97
0.47,0.65,-9.92,9.95
0.40,0.54,-9.90,9.92
0.33,0.60,-9.90,9.93
0.47,0.69,-9.96,10.00
0.47,0.65,-9.94,9.98
0.44,0.60,-9.81,9.84
0.25,0.86,-10.08,10.12
0.47,0.50,-9.87,9.90
0.49,0.67,-9.83,9.87
0.42,0.73,-9.93,9.96
0.44,0.56,-9.99,10.02
0.60,0.57,-9.95,9.98
0.38,0.69,-9.88,9.91
0.34,0.71,-9.88,9.91
0.31,0.50,-9.94,9.95
0.42,0.61,-9.91,9.94
0.43,0.66,-9.89,9.92
0.34,0.65,-9.92,9.95
0.41,0.65,-9.93,9.96
0.44,0.72,-9.98,10.01
0.50,0.73,-9.96,10.00
0.30,0.67,-9.92,9.94
0.41,0.51,-9.95,9.97
0.42,0.72,-9.98,10.01
0.52,0.72,-9.93,9.97
0.40,0.58,-9.94,9.97
0.38,0.61,-9.87,9.90
0.31,0.63,-9.90,9.93
0.39,0.68,-9.91,9.94
0.43,0.62,-9.92,9.95
0.39,0.70,-9.96,10.00
0.36,0.64,-9.95,9.97
0.40,0.64,-9.97,10.00
0.43,0.70,-9.91,9.95
0.28,0.59,-9.93,9.95
0.36,0.60,-9.90,9.93
0.30,0.58,-9.93,9.95
0.42,0.69,-9.88,9.91
0.39,0.71,-9.99,10.02
0.34,0.59,-9.89,9.91
0.38,0.59,-9.79,9.82
0.22,0.79,-10.05,10.09
0.36,0.57,-9.93,9.96
0.34,0.53,-9.86,9.88
0.40,0.75,-9.94,9.98
0.43,0.68,-9.99,10.02
0.41,0.60,-9.95,9.97
0.33,0.66,-9.91,9.94
0.30,0.61,-9.88,9.91
0.27,0.64,-9.93,9.95
0.26,0.63,-9.89,9.91
0.40,0.72,-9.90,9.94
0.40,0.62,-9.89,9.91
0.45,0.54,-9.86,9.89
0.38,0.58,-9.90,9.93
0.38,0.66,-9.90,9.93
0.17,0.74,-9.93,9.96
0.29,0.57,-10.04,10.06
0.45,0.54,-9.97,10.00
0.31,0.68,-9.90,9.93
0.37,0.65,-9.85,9.88
0.40,0.64,-9.78,9.81
0.22,0.72,-9.95,9.98
0.28,0.68,-9.91,9.94
0.30,0.59,-9.90,9.92
0.39,0.62,-9.98,10.01
0.42,0.72,-9.92,9.95
0.37,0.64,-9.96,9.99
0.25,0.60,-9.92,9.94
0.33,0.65,-9.89,9.92
0.32,0.60,-9.93,9.95
0.31,0.63,-10.03,10.06
0.34,0.67,-9.93,9.96
0.30,0.64,-9.85,9.87
0.10,0.73,-10.05,10.08
0.33,0.60,-9.99,10.01
0.41,0.61,-9.76,9.79
0.28,0.72,-9.95,9.98
0.39,0.63,-9.98,10.01
0.45,0.59,-9.94,9.97
0.30,0.59,-9.92,9.94
0.26,0.62,-9.89,9.91
0.25,0.64,-9.93,9.96
0.34,0.66,-9.91,9.94
0.36,0.63,-9.90,9.93
0.21,0.63,-9.89,9.91
0.34,0.67,-9.89,9.91
0.39,0.69,-10.00,10.03
0.37,0.66,-9.93,9.95
0.18,0.69,-9.97,10.00
0.33,0.66,-9.96,9.99
0.42,0.60,-9.97,10.00
0.32,0.57,-9.98,10.00
0.29,0.64,-9.89,9.91
0.33,0.63,-9.89,9.92
0.36,0.67,-9.91,9.94
0.29,0.58,-9.97,9.99
0.35,0.64,-9.91,9.93
0.27,0.65,-9.92,9.95
0.23,0.59,-9.94,9.96
0.26,0.57,-9.92,9.94
0.29,0.68,-9.92,9.94
0.31,0.63,-9.92,9.94
0.35,0.64,-9.94,9.96
0.38,0.69,-9.93,9.96
0.31,0.68,-10.00,10.02
0.42,0.56,-9.91,9.94
0.27,0.62,-9.90,9.92
0.32,0.64,-9.97,10.00
0.28,0.55,-9.88,9.90
0.19,0.73,-9.92,9.95
0.37,0.74,-10.05,10.08
0.45,0.54,-9.98,10.00
0.36,0.63,-9.88,9.91
0.24,0.60,-9.90,9.92
0.30,0.65,-9.92,9.94
0.41,0.63,-9.96,9.99
0.35,0.56,-9.95,9.97
0.40,0.76,-9.92,9.96
0.26,0.54,-9.89,9.90
0.43,0.72,-9.94,9.97
0.46,0.60,-9.85,9.88
0.33,0.71,-9.91,9.94
0.37,0.71,-9.95,9.99
0.22,0.41,-9.93,9.94
0.43,0.74,-9.96,10.00
0.44,0.69,-9.94,9.97
0.40,0.65,-9.92,9.95
0.41,0.72,-9.90,9.94
0.18,0.42,-9.91,9.92
0.42,0.68,-9.94,9.97
0.47,0.71,-9.93,9.97
0.26,0.56,-9.91,9.93
0.37,0.64,-9.94,9.96
0.41,0.60,-9.97,10.00
0.39,0.69,-9.92,9.96
0.23,0.57,-9.87,9.89
0.25,0.49,-9.91,9.93
0.42,0.69,-9.99,10.02
0.45,0.67,-9.92,9.95
0.38,0.65,-9.88,9.91
0.14,0.48,-9.98,9.99
0.44,0.69,-9.99,10.02
0.37,0.49,-9.85,9.87
0.23,0.81,-10.04,10.08
0.45,0.59,-9.97,10.00
0.31,0.66,-9.88,9.90
0.30,0.71,-9.96,9.99
0.35,0.55,-10.01,10.03
0.40,0.50,-9.97,9.99
0.41,0.63,-9.91,9.94
0.40,0.67,-9.91,9.94
0.27,0.59,-9.91,9.93
0.31,0.63,-9.93,9.95
0.38,0.63,-9.94,9.97
0.33,0.58,-9.92,9.94
0.35,0.60,-9.91,9.94
0.19,0.63,-10.02,10.04
0.44,0.54,-9.88,9.91
0.33,0.67,-9.93,9.96
0.38,0.66,-9.94,9.96
0.23,0.58,-9.98,10.00
0.36,0.60,-9.95,9.98
0.42,0.62,-9.96,9.99
0.39,0.67,-9.87,9.90
0.27,0.63,-9.91,9.93
0.32,0.52,-9.92,9.94
0.33,0.51,-9.92,9.94
0.32,0.72,-9.90,9.93
0.30,0.57,-9.94,9.96
0.31,0.49,-9.95,9.97
0.35,0.56,-9.94,9.96
0.35,0.73,-9.91,9.94
0.39,0.58,-9.91,9.94
0.34,0.51,-9.95,9.97
0.32,0.55,-9.91,9.93
0.24,0.54,-9.90,9.91
0.33,0.64,-9.95,9.98
0.44,0.65,-9.99,10.02
0.39,0.51,-9.86,9.88
0.16,0.81,-10.00,10.04
0.31,0.61,-9.99,10.02
0.21,0.31,-9.84,9.85
0.33,0.71,-9.93,9.96
0.42,0.79,-9.98,10.02
0.43,0.59,-9.95,9.98
0.20,0.40,-9.91,9.92
0.23,0.62,-9.90,9.92
0.34,0.69,-9.91,9.94
0.28,0.57,-9.92,9.94
0.30,0.37,-9.94,9.96
0.35,0.62,-9.92,9.94
0.32,0.64,-9.95,9.98
0.32,0.66,-10.01,10.04
0.37,0.47,-9.91,9.93
0.15,0.46,-9.92,9.93
0.32,0.62,-9.95,9.97
0.49,0.67,-9.96,10.00
0.41,0.63,-9.91,9.94
0.22,0.53,-9.88,9.90
0.31,0.61,-9.88,9.91
0.27,0.51,-9.89,9.91
0.33,0.62,-9.92,9.94
0.27,0.57,-9.95,9.97
0.32,0.59,-9.98,10.00
0.42,0.63,-9.92,9.95
0.30,0.56,-9.91,9.93
0.32,0.57,-9.94,9.97
0.40,0.59,-9.98,10.01
0.29,0.57,-9.92,9.94
0.27,0.59,-9.90,9.92
0.36,0.62,-9.95,9.98
0.29,0.55,-10.02,10.04
0.33,0.54,-9.92,9.94
0.31,0.50,-9.80,9.82
0.19,0.86,-10.15,10.19
0.37,0.51,-9.99,10.01
0.25,0.52,-9.83,9.84
0.33,0.66,-9.94,9.97
0.49,0.59,-10.03,10.06
0.26,0.50,-9.99,10.01
0.23,0.59,-9.90,9.92
0.26,0.69,-9.91,9.93
0.32,0.63,-9.93,9.95
0.34,0.53,-9.94,9.96
0.27,0.53,-9.92,9.93
0.30,0.64,-9.92,9.94
0.26,0.61,-10.04,10.06
0.46,0.59,-9.95,9.98
0.33,0.51,-9.91,9.92
0.12,0.62,-10.01,10.03
0.40,0.68,-10.02,10.05
0.43,0.50,-9.95,9.97
0.21,0.50,-9.95,9.96
0.25,0.64,-9.91,9.94
0.31,0.62,-9.84,9.86
0.40,0.64,-9.89,9.92
0.35,0.60,-9.93,9.95
0.12,0.47,-9.93,9.94
0.32,0.65,-9.96,9.99
0.35,0.53,-9.94,9.96
0.30,0.54,-9.95,9.96
0.24,0.53,-9.90,9.91
0.24,0.59,-9.98,10.00
0.35,0.63,-9.97,10.00
0.24,0.48,-9.87,9.88
0.21,0.52,-9.86,9.88
0.29,0.59,-10.03,10.05
0.41,0.57,-9.78,9.81
0.07,0.54,-9.91,9.92
0.42,0.65,-10.05,10.08
0.45,0.61,-9.98,10.01
0.28,0.59,-9.88,9.91
0.23,0.61,-9.92,9.94
0.30,0.63,-9.91,9.93
0.27,0.53,-9.94,9.95
0.35,0.56,-9.91,9.94
0.34,0.57,-9.93,9.95
0.31,0.61,-9.93,9.95
0.16,0.56,-10.01,10.03
0.28,0.50,-9.91,9.93
0.21,0.60,-9.96,9.98
0.24,0.58,-9.99,10.01
0.40,0.58,-9.95,9.98
0.32,0.55,-9.92,9.94
0.26,0.60,-9.98,10.01
0.29,0.59,-9.88,9.90
0.24,0.50,-9.89,9.91
0.37,0.60,-9.98,10.00
0.32,0.56,-9.91,9.93
0.28,0.64,-9.88,9.91
0.33,0.57,-9.96,9.98
0.25,0.47,-9.98,10.00
0.24,0.43,-9.94,9.96
0.26,0.51,-9.92,9.94
0.31,0.65,-9.95,9.97
0.37,0.59,-9.95,9.98
0.36,0.56,-9.86,9.88
0.06,0.71,-10.05,10.08
0.30,0.49,-9.96,9.97
0.33,0.50,-9.78,9.80
0.25,0.66,-9.90,9.92
0.33,0.52,-10.00,10.02
0.39,0.55,-9.95,9.98
0.31,0.61,-9.92,9.94
0.24,0.62,-9.89,9.92
0.29,0.51,-9.91,9.93
0.33,0.60,-9.95,9.97
0.25,0.54,-9.91,9.93
0.26,0.61,-9.90,9.92
0.30,0.59,-9.98,10.00
0.35,0.66,-10.06,10.08
0.37,0.61,-9.90,9.92
0.21,0.67,-9.94,9.97
0.26,0.57,-9.97,9.99
0.34,0.50,-9.96,9.98
0.34,0.61,-9.97,9.99
0.32,0.66,-9.93,9.96
0.35,0.66,-9.90,9.92
0.31,0.51,-9.87,9.89
0.34,0.66,-9.95,9.98
0.30,0.54,-9.94,9.95
0.29,0.61,-9.93,9.95
0.40,0.67,-9.98,10.01
0.29,0.47,-9.95,9.96
0.29,0.58,-9.92,9.94
0.27,0.56,-9.90,9.92
0.31,0.60,-9.92,9.94
0.41,0.67,-9.95,9.98
0.23,0.57,-9.90,9.91
0.21,0.53,-9.90,9.92
0.43,0.67,-9.91,9.95
0.32,0.73,-9.98,10.01
0.39,0.58,-9.99,10.02
0.32,0.46,-9.90,9.92
0.20,0.83,-10.03,10.07
0.40,0.58,-9.93,9.96
0.27,0.48,-9.90,9.92
0.33,0.69,-9.96,9.99
0.38,0.68,-9.98,10.01
0.47,0.65,-9.96,9.99
0.36,0.60,-9.93,9.95
0.32,0.51,-9.89,9.91
0.32,0.68,-9.90,9.93
0.35,0.67,-9.93,9.95
0.39,0.58,-9.96,9.98
0.33,0.53,-9.88,9.90
0.35,0.69,-9.93,9.96
0.40,0.77,-10.01,10.05
0.35,0.42,-9.86,9.87
0.30,0.64,-9.94,9.96
0.31,0.66,-9.92,9.94
0.40,0.71,-9.90,9.93
0.42,0.59,-9.92,9.95
0.41,0.64,-9.97,10.00
0.26,0.61,-9.95,9.97
0.25,0.63,-9.93,9.95
0.47,0.68,-9.91,9.95
0.46,0.67,-9.94,9.97
0.34,0.62,-9.91,9.93
0.16,0.47,-9.90,9.91
0.43,0.71,-9.97,10.00
0.41,0.68,-9.86,9.89
0.26,0.60,-9.89,9.91
0.37,0.69,-9.94,9.97
0.36,0.60,-9.94,9.96
0.31,0.60,-9.90,9.92
0.44,0.72,-9.90,9.94
0.41,0.68,-9.92,9.95
0.31,0.54,-9.96,9.98
0.37,0.71,-9.92,9.96
0.44,0.67,-9.83,9.86
0.18,0.78,-10.07,10.10
0.38,0.40,-9.79,9.80
0.39,0.70,-9.92,9.95
0.38,0.73,-9.93,9.96
0.41,0.68,-9.98,10.01
0.45,0.71,-9.95,9.98
0.29,0.58,-9.91,9.93
0.38,0.68,-9.92,9.95
0.39,0.71,-9.92,9.95
0.32,0.58,-9.91,9.94
0.37,0.60,-9.99,10.01
0.38,0.69,-9.92,9.95
0.31,0.57,-9.91,9.93
0.42,0.69,-9.96,9.99
0.42,0.68,-9.91,9.95
0.24,0.63,-9.93,9.95
0.39,0.63,-9.95,9.98
0.44,0.70,-9.96,9.99
0.42,0.69,-9.94,9.97
0.31,0.61,-9.93,9.95
0.40,0.78,-9.90,9.93
0.38,0.72,-9.92,9.95
0.35,0.67,-9.90,9.93
0.34,0.71,-9.92,9.95
0.46,0.70,-9.95,9.98
0.45,0.70,-9.94,9.98
0.35,0.62,-9.91,9.93
0.32,0.67,-9.94,9.97
0.39,0.69,-9.93,9.96
0.41,0.69,-9.89,9.92
0.36,0.66,-9.94,9.97
0.31,0.65,-9.92,9.94
0.36,0.72,-9.93,9.96
0.45,0.71,-9.93,9.96
0.40,0.73,-9.87,9.90
0.30,0.61,-9.91,9.93
0.35,0.68,-9.94,9.97
0.50,0.72,-10.00,10.04
0.44,0.57,-9.63,9.66
0.16,0.61,-9.96,9.98
0.43,0.50,-9.91,9.93
0.41,0.73,-9.84,9.88
0.38,0.81,-9.96,10.00
0.43,0.57,-9.98,10.01
0.34,0.47,-9.93,9.94
0.43,0.78,-9.91,9.95
0.33,0.79,-9.88,9.92
0.30,0.60,-9.91,9.93
0.44,0.56,-9.95,9.98
0.42,0.76,-9.88,9.92
0.32,0.78,-9.87,9.91
0.36,0.63,-9.89,9.91
0.37,0.56,-10.01,10.04
0.46,0.75,-9.91,9.94
0.27,0.75,-9.92,9.95
0.36,0.63,-9.94,9.97
0.39,0.65,-9.95,9.98
0.37,0.76,-9.94,9.98
0.35,0.67,-9.89,9.92
0.34,0.63,-9.85,9.87
0.33,0.77,-9.89,9.93
0.42,0.75,-9.93,9.97
0.42,0.67,-9.91,9.94
0.35,0.67,-9.91,9.94
0.36,0.76,-9.96,9.99
0.39,0.73,-9.90,9.94
0.34,0.63,-9.94,9.96
0.37,0.67,-9.97,10.00
0.34,0.67,-9.93,9.96
0.31,0.70,-9.89,9.92
0.39,0.73,-9.89,9.93
0.44,0.73,-9.92,9.96
0.20,0.48,-9.91,9.92
0.37,0.71,-9.93,9.96
0.41,0.76,-9.90,9.94
0.21,0.95,-10.11,10.16
0.32,0.63,-9.98,10.01
0.31,0.61,-9.82,9.84
0.34,0.64,-9.95,9.97
0.37,0.64,-10.00,10.03
0.44,0.71,-9.94,9.97
0.35,0.73,-9.90,9.93
0.28,0.75,-9.88,9.91
0.32,0.70,-9.90,9.93
0.35,0.67,-9.93,9.96
0.32,0.64,-9.91,9.94
0.42,0.80,-9.90,9.94
0.43,0.79,-9.87,9.91
0.37,0.66,-9.95,9.98
0.31,0.60,-9.91,9.93
0.28,0.73,-9.91,9.95
0.39,0.74,-9.95,9.99
0.42,0.65,-9.97,10.00
0.39,0.72,-9.93,9.97
0.39,0.73,-9.92,9.95
0.30,0.66,-9.85,9.87
0.31,0.73,-9.89,9.92
0.41,0.79,-9.97,10.01
0.40,0.69,-9.89,9.92
0.34,0.68,-9.94,9.97
0.28,0.62,-9.91,9.93
0.36,0.74,-9.92,9.95
0.30,0.69,-9.93,9.95
0.34,0.67,-9.90,9.93
0.31,0.62,-9.89,9.92
0.39,0.82,-9.92,9.96
0.36,0.73,-9.89,9.92
0.29,0.61,-9.97,9.99
0.45,0.73,-9.91,9.95
0.40,0.66,-9.75,9.78
0.21,0.82,-10.02,10.06
0.47,0.70,-9.98,10.02
0.37,0.81,-9.85,9.89
0.34,0.87,-9.94,9.99
0.40,0.67,-9.94,9.97
0.40,0.53,-9.92,9.94
0.38,0.71,-9.90,9.94
0.34,0.79,-9.92,9.96
0.37,0.77,-9.91,9.95
0.26,0.58,-9.91,9.93
0.40,0.73,-9.89,9.93
0.40,0.80,-9.89,9.93
0.35,0.74,-9.91,9.94
0.37,0.71,-9.99,10.02
0.46,0.74,-9.91,9.95
0.25,0.77,-9.92,9.95
0.37,0.67,-9.97,10.00
0.41,0.75,-9.93,9.97
0.35,0.72,-9.90,9.93
0.34,0.75,-9.91,9.95
0.42,0.70,-9.89,9.92
0.39,0.69,-9.90,9.93
0.33,0.73,-9.93,9.96
0.38,0.78,-9.91,9.95
0.41,0.74,-9.93,9.97
0.41,0.68,-9.92,9.96
0.40,0.69,-9.91,9.94
0.40,0.74,-9.94,9.97
0.39,0.75,-9.90,9.94
0.31,0.73,-9.93,9.97
0.40,0.67,-9.94,9.97
0.44,0.79,-9.90,9.94
0.45,0.82,-9.93,9.97
0.35,0.70,-9.89,9.92
0.37,0.73,-9.97,10.01
0.48,0.79,-9.98,10.02
0.42,0.73,-9.84,9.88
0.24,0.87,-10.11,10.15
0.48,0.59,-9.85,9.88
0.45,0.75,-9.83,9.87
0.41,0.92,-9.90,9.95
0.43,0.76,-10.00,10.04
0.41,0.64,-9.93,9.96
0.54,0.80,-9.94,9.99
0.37,0.72,-9.87,9.90
0.35,0.74,-9.91,9.94
0.42,0.80,-9.91,9.96
0.38,0.69,-9.88,9.91
0.39,0.77,-9.88,9.92
0.41,0.83,-9.88,9.92
0.43,0.85,-9.96,10.01
0.49,0.78,-9.93,9.97
0.36,0.71,-9.93,9.96
0.36,0.75,-9.92,9.96
0.38,0.75,-9.91,9.94
0.41,0.69,-9.96,9.99
0.54,0.81,-9.96,10.01
0.42,0.71,-9.88,9.91
0.36,0.81,-9.90,9.94
0.41,0.83,-9.95,9.99
0.50,0.75,-9.92,9.96
0.43,0.73,-9.91,9.94
0.32,0.71,-9.95,9.98
0.47,0.82,-9.90,9.95
0.50,0.81,-9.91,9.95
0.36,0.70,-9.90,9.93
0.40,0.81,-9.95,9.99
0.41,0.72,-9.93,9.96
0.47,0.74,-9.94,9.98
0.39,0.72,-9.92,9.95
0.39,0.71,-9.92,9.96
0.33,0.69,-9.88,9.91
0.48,0.77,-9.92,9.96
0.46,0.78,-9.95,9.99
0.31,0.60,-9.96,9.98
0.42,0.77,-9.84,9.88
0.31,1.08,-10.07,10.13
0.53,0.64,-9.88,9.92
0.46,0.58,-9.94,9.97
0.33,0.75,-9.96,9.99
0.44,0.94,-9.95,10.00
0.54,0.73,-9.93,9.97
0.45,0.60,-9.90,9.93
0.38,0.75,-9.91,9.94
0.31,0.79,-9.92,9.96
0.49,0.78,-9.92,9.96
0.49,0.73,-9.90,9.94
0.31,0.69,-9.89,9.92
0.38,0.84,-9.91,9.96
0.38,0.79,-10.02,10.06
0.51,0.70,-9.92,9.96
0.38,0.74,-9.89,9.92
0.34,0.70,-9.93,9.96
0.45,0.70,-9.94,9.97
0.46,0.74,-9.91,9.95
0.42,0.82,-9.92,9.96
0.40,0.81,-9.89,9.93
0.43,0.77,-9.88,9.92
0.40,0.72,-9.89,9.93
0.40,0.77,-9.92,9.96
0.47,0.81,-9.94,9.99
0.52,0.78,-9.89,9.93
0.43,0.66,-9.90,9.94
0.34,0.70,-9.93,9.96
0.40,0.78,-9.95,9.99
0.44,0.79,-9.88,9.92
0.38,0.72,-9.89,9.92
0.40,0.75,-9.90,9.94
0.44,0.78,-9.95,9.99
0.47,0.75,-9.94,9.98
0.62,0.70,-9.93,9.97
0.26,0.76,-9.95,9.99
0.55,0.81,-9.96,10.01
0.43,0.58,-9.69,9.72
0.15,0.98,-10.07,10.12
0.47,0.72,-9.91,9.95
0.31,0.68,-9.82,9.85
0.32,0.84,-9.93,9.97
0.55,0.73,-9.93,9.97
0.45,0.66,-9.94,9.97
0.41,0.78,-9.90,9.94
0.36,0.81,-9.85,9.89
0.37,0.73,-9.92,9.96
0.41,0.79,-9.95,9.99
0.42,0.74,-9.91,9.95
0.36,0.65,-9.85,9.87
0.43,0.83,-9.96,10.00
0.46,0.87,-9.99,10.04
0.42,0.73,-9.91,9.95
0.32,0.78,-9.88,9.91
0.40,0.76,-9.96,9.99
0.38,0.74,-9.99,10.02
0.40,0.76,-9.94,9.98
0.41,0.81,-9.91,9.95
0.33,0.68,-9.88,9.91
0.40,0.75,-9.89,9.92
0.38,0.70,-9.92,9.95
0.39,0.75,-9.90,9.93
0.36,0.76,-9.88,9.92
0.43,0.82,-9.93,9.97
0.47,0.74,-9.89,9.93
0.28,0.72,-9.94,9.97
0.39,0.84,-9.95,9.99
0.33,0.79,-9.92,9.96
0.36,0.78,-9.90,9.94
0.38,0.64,-9.92,9.95
0.43,0.79,-9.97,10.01
0.42,0.76,-9.90,9.94
0.34,0.56,-9.71,9.73
0.29,0.93,-10.08,10.13
0.35,0.68,-9.97,10.00
0.39,0.83,-9.83,9.87
0.28,0.81,-9.93,9.97
0.42,0.69,-10.00,10.03
0.51,0.74,-9.94,9.98
0.33,0.77,-9.89,9.92
0.27,0.66,-9.92,9.95
0.38,0.75,-9.92,9.95
0.38,0.77,-9.89,9.93
0.33,0.78,-9.88,9.92
0.36,0.69,-9.90,9.93
0.40,0.83,-10.07,10.11
0.46,0.75,-9.90,9.94
0.31,0.68,-9.90,9.93
0.36,0.80,-9.97,10.01
0.47,0.78,-9.97,10.01
0.40,0.77,-9.95,9.99
0.27,0.65,-9.89,9.92
0.36,0.83,-9.90,9.94
0.39,0.78,-9.85,9.88
0.36,0.80,-9.93,9.97
0.33,0.64,-9.93,9.95
0.39,0.77,-9.92,9.96
0.39,0.81,-9.92,9.97
0.38,0.79,-9.91,9.95
0.41,0.74,-9.90,9.94
0.41,0.77,-9.90,9.94
0.31,0.76,-9.91,9.95
0.40,0.84,-9.91,9.96
0.40,0.81,-9.97,10.01
0.46,0.79,-9.90,9.94
0.37,0.70,-9.70,9.73
0.28,0.79,-10.01,10.04
0.47,0.76,-9.98,10.02
0.26,0.81,-9.85,9.88
0.39,0.83,-10.01,10.05
0.48,0.62,-10.01,10.04
0.43,0.79,-9.92,9.96
0.34,0.82,-9.87,9.91
0.29,0.74,-9.92,9.95
0.41,0.69,-9.91,9.94
0.41,0.84,-9.91,9.95
0.33,0.81,-9.85,9.89
0.32,0.72,-9.87,9.90
0.46,0.85,-10.01,10.06
0.46,0.77,-9.90,9.94
0.40,0.83,-9.79,9.83
0.28,0.73,-9.92,9.95
0.43,0.75,-9.97,10.01
0.51,0.74,-9.94,9.98
0.39,0.81,-9.90,9.94
0.41,0.84,-9.91,9.95
0.41,0.74,-9.89,9.93
0.40,0.73,-9.86,9.90
0.36,0.82,-9.92,9.96
0.43,0.77,-9.92,9.96
0.40,0.70,-9.95,9.98
0.40,0.78,-9.89,9.93
0.36,0.89,-9.90,9.95
0.40,0.76,-9.89,9.93
0.42,0.74,-9.92,9.96
0.47,0.76,-9.92,9.96
0.40,0.87,-9.87,9.92
0.46,0.87,-9.95,10.00
0.41,0.77,-9.92,9.96
0.50,0.64,-9.83,9.86
0.26,0.98,-10.09,10.14
0.49,0.75,-9.90,9.94
0.43,0.75,-9.77,9.81
0.47,0.84,-9.91,9.96
0.47,0.82,-9.96,10.01
0.45,0.77,-9.92,9.96
0.45,0.79,-9.92,9.96
0.45,0.80,-9.85,9.89
0.39,0.81,-9.88,9.92
0.44,0.81,-9.91,9.96
0.49,0.83,-9.91,9.95
0.45,0.84,-9.91,9.95
0.38,0.78,-9.91,9.95
0.49,0.93,-9.99,10.05
0.53,0.81,-9.89,9.94
0.37,0.79,-9.87,9.91
0.43,0.82,-9.93,9.97
0.48,0.83,-9.94,9.98
0.46,0.81,-9.94,9.98
0.45,0.83,-9.90,9.94
0.40,0.85,-9.89,9.93
0.46,0.88,-9.86,9.91
0.48,0.75,-9.89,9.93
0.47,0.85,-9.94,9.98
0.45,0.82,-9.89,9.93
0.46,0.85,-9.88,9.93
0.54,0.84,-9.92,9.97
0.45,0.76,-9.91,9.95
0.40,0.75,-9.90,9.94
0.38,0.78,-9.93,9.96
0.53,0.91,-9.91,9.96
0.45,0.85,-9.90,9.94
0.41,0.79,-9.86,9.90
0.45,0.84,-9.94,9.98
0.44,0.85,-9.91,9.95
0.48,0.82,-9.96,10.00
0.52,0.78,-9.91,9.95
0.43,0.70,-9.69,9.72
0.29,0.94,-9.95,10.00
0.60,0.72,-9.86,9.91
0.47,0.80,-9.83,9.88
0.46,0.82,-9.96,10.00
0.50,0.82,-9.97,10.02
0.54,0.80,-9.88,9.92
0.35,0.77,-9.88,9.92
0.42,0.88,-9.91,9.95
0.45,0.85,-9.88,9.92
0.47,0.86,-9.91,9.96
0.41,0.72,-9.90,9.93
0.47,0.82,-9.89,9.93
0.53,0.91,-9.88,9.93
0.49,0.90,-9.96,10.01
0.45,0.73,-9.91,9.94
0.35,0.77,-9.90,9.93
0.48,0.85,-9.92,9.97
0.49,0.86,-9.92,9.97
0.51,0.80,-9.94,9.98
0.47,0.73,-9.93,9.97
0.39,0.86,-9.89,9.94
0.46,0.87,-9.90,9.95
0.50,0.88,-9.88,9.94
0.49,0.78,-9.89,9.93
0.40,0.87,-9.90,9.95
0.50,0.81,-9.93,9.98
0.47,0.77,-9.94,9.99
0.52,0.86,-9.89,9.94
0.40,0.83,-9.90,9.95
0.45,0.82,-9.87,9.91
0.47,0.74,-9.92,9.96
0.42,0.72,-9.94,9.98
0.44,0.90,-9.88,9.93
0.43,0.96,-9.92,9.98
0.53,0.87,-9.95,10.00
0.54,0.82,-9.83,9.88
0.35,0.99,-9.93,9.99
0.41,0.85,-10.03,10.07
0.54,0.80,-9.89,9.94
0.38,0.87,-9.89,9.94
0.54,0.85,-9.96,10.01
0.69,0.74,-9.95,10.00
0.49,0.79,-9.91,9.95
0.34,0.85,-9.91,9.95
0.40,0.82,-9.88,9.92
0.51,0.82,-9.91,9.95
0.46,0.84,-9.91,9.95
0.45,0.85,-9.89,9.94
0.48,0.86,-9.89,9.94
0.51,0.85,-9.94,9.99
0.48,0.82,-9.86,9.91
0.43,0.83,-9.86,9.90
0.40,0.76,-9.91,9.95
0.50,0.77,-9.93,9.97
0.53,0.88,-9.96,10.01
0.46,0.89,-9.93,9.98
0.40,0.78,-9.87,9.91
0.49,0.87,-9.89,9.94
0.36,0.77,-9.92,9.96
0.51,0.84,-9.93,9.98
0.57,0.85,-9.92,9.97
0.46,0.85,-9.91,9.95
0.40,0.82,-9.91,9.95
0.49,0.79,-9.93,9.97
0.49,0.77,-9.94,9.98
0.41,0.84,-9.90,9.94
0.46,0.88,-9.85,9.90
0.49,0.83,-9.90,9.94
0.50,0.85,-9.88,9.93
0.45,0.87,-9.92,9.96
0.50,0.79,-9.95,10.00
0.45,0.73,-9.89,9.93
0.43,0.85,-9.86,9.90
0.45,0.82,-10.00,10.05
0.53,0.75,-9.82,9.86
0.38,0.90,-9.90,9.95
0.47,0.89,-9.94,9.99
0.45,0.74,-9.97,10.01
0.42,0.75,-9.93,9.96
0.45,0.87,-9.86,9.91
0.46,0.97,-9.85,9.91
0.41,0.77,-9.91,9.95
0.34,0.58,-9.94,9.96
0.51,0.87,-9.92,9.97
0.48,0.93,-9.90,9.95
0.38,0.78,-9.98,10.02
0.49,0.72,-9.93,9.97
0.48,0.79,-9.84,9.88
0.29,0.90,-9.92,9.97
0.32,0.77,-9.97,10.00
0.59,0.70,-9.94,9.99
0.46,0.96,-9.93,9.98
0.21,0.76,-9.84,9.87
0.48,0.85,-9.86,9.91
0.45,0.91,-9.96,10.01
0.45,0.82,-9.93,9.97
0.28,0.75,-9.88,9.91
0.46,0.87,-9.91,9.96
0.50,0.84,-9.93,9.98
0.36,0.71,-9.88,9.91
0.40,0.74,-9.93,9.96
0.50,0.84,-9.93,9.98
0.42,0.89,-9.89,9.94
0.32,0.67,-9.82,9.85
0.50,0.85,-9.94,9.99
0.43,0.82,-9.93,9.97
0.46,0.85,-9.92,9.97
0.29,0.80,-9.90,9.93
0.35,0.65,-9.94,9.97
0.50,0.86,-9.85,9.90
0.38,0.94,-9.87,9.92
0.42,0.84,-9.96,10.01
0.51,0.66,-9.99,10.03
0.50,0.89,-9.92,9.97
0.36,0.88,-9.88,9.93
0.34,0.82,-9.88,9.92
0.44,0.82,-9.92,9.97
0.49,0.81,-9.90,9.94
0.47,0.83,-9.87,9.91
0.34,0.83,-9.91,9.95
0.35,0.86,-10.01,10.05
0.59,0.73,-9.87,9.91
0.53,0.78,-9.81,9.86
0.34,0.91,-9.93,9.97
0.38,0.79,-9.92,9.96
0.55,0.89,-9.92,9.98
0.52,0.89,-9.92,9.97
0.47,0.92,-9.89,9.94
0.45,0.83,-9.86,9.90
0.37,0.77,-9.92,9.96
